FILE_INFO
ListSeparator=,
DecimalSeparator=.

SESSION_INFO
TimeZone,UTC
TimeZoneOffset,0
DateTimeFormat,nnnnnnnnnnnnnnnnnnn
StartTime,01/01/70 00:00:00.000000000
TimeFormat,Unix

DEVICE_INFO
Address,*

CHANNEL_INFO
Channel,Type,SampleRate,Equation,Coefficients,Unit,UnitSymbol,WhereApplied,WhenApplied
inertial-6286.188861:scaledAccelX,Timeseries,100Hz,,,,,,
inertial-6286.188861:scaledAccelY,Timeseries,100Hz,,,,,,
inertial-6286.188861:scaledAccelZ,Timeseries,100Hz,,,,,,
inertial-6286.188861:deltaVelX,Timeseries,100Hz,,,,,,
inertial-6286.188861:deltaVelY,Timeseries,100Hz,,,,,,
inertial-6286.188861:deltaVelZ,Timeseries,100Hz,,,,,,
inertial-6286.188861:estLinearAccelX,Timeseries,100Hz,,,,,,
inertial-6286.188861:estLinearAccelX:valid,ValidFlag,100Hz,,,,,,
inertial-6286.188861:estLinearAccelY,Timeseries,100Hz,,,,,,
inertial-6286.188861:estLinearAccelY:valid,ValidFlag,100Hz,,,,,,
inertial-6286.188861:estLinearAccelZ,Timeseries,100Hz,,,,,,
inertial-6286.188861:estLinearAccelZ:valid,ValidFlag,100Hz,,,,,,
inertial-6286.188861:estAngularRateX,Timeseries,100Hz,,,,,,
inertial-6286.188861:estAngularRateX:valid,ValidFlag,100Hz,,,,,,
inertial-6286.188861:estAngularRateY,Timeseries,100Hz,,,,,,
inertial-6286.188861:estAngularRateY:valid,ValidFlag,100Hz,,,,,,
inertial-6286.188861:estAngularRateZ,Timeseries,100Hz,,,,,,
inertial-6286.188861:estAngularRateZ:valid,ValidFlag,100Hz,,,,,,
inertial-6286.188861:estFilterState,Timeseries,100Hz,,,,,,
inertial-6286.188861:estFilterStatusFlags,Timeseries,100Hz,,,,,,
inertial-6286.188861:estGravityVectorX,Timeseries,100Hz,,,,,,
inertial-6286.188861:estGravityVectorX:valid,ValidFlag,100Hz,,,,,,
inertial-6286.188861:estGravityVectorY,Timeseries,100Hz,,,,,,
inertial-6286.188861:estGravityVectorY:valid,ValidFlag,100Hz,,,,,,
inertial-6286.188861:estGravityVectorZ,Timeseries,100Hz,,,,,,
inertial-6286.188861:estGravityVectorZ:valid,ValidFlag,100Hz,,,,,,

DATA_START
Time,inertial-6286.188861:scaledAccelX,inertial-6286.188861:scaledAccelY,inertial-6286.188861:scaledAccelZ,inertial-6286.188861:deltaVelX,inertial-6286.188861:deltaVelY,inertial-6286.188861:deltaVelZ,inertial-6286.188861:estLinearAccelX,inertial-6286.188861:estLinearAccelX:valid,inertial-6286.188861:estLinearAccelY,inertial-6286.188861:estLinearAccelY:valid,inertial-6286.188861:estLinearAccelZ,inertial-6286.188861:estLinearAccelZ:valid,inertial-6286.188861:estAngularRateX,inertial-6286.188861:estAngularRateX:valid,inertial-6286.188861:estAngularRateY,inertial-6286.188861:estAngularRateY:valid,inertial-6286.188861:estAngularRateZ,inertial-6286.188861:estAngularRateZ:valid,inertial-6286.188861:estFilterState,inertial-6286.188861:estFilterStatusFlags,inertial-6286.188861:estGravityVectorX,inertial-6286.188861:estGravityVectorX:valid,inertial-6286.188861:estGravityVectorY,inertial-6286.188861:estGravityVectorY:valid,inertial-6286.188861:estGravityVectorZ,inertial-6286.188861:estGravityVectorZ:valid
1778106286643230464,-0.01470742281526327,-0.03963463380932808,-0.9958094954490662,-0.0001490315626142547,-0.000389403197914362,-0.009964711032807827,,,,,,,,,,,,,,,,,,,,
1778106286646917120,,,,,,,0.01431883499026299,1,-0.01991522125899792,1,0.04152561351656914,1,0.005551290232688189,1,-0.001638840651139617,1,6.924945046193898e-05,1,3,1,0.1605819016695023,1,0.3815931975841522,1,9.797906875610352,1
1778106286653267968,-0.01480525080114603,-0.03921332582831383,-0.9958681464195251,-0.0001486466353526339,-0.0003865025064442307,-0.009960483759641647,,,,,,,,,,,,,,,,,,,,
1778106286656947712,,,,,,,0.01589608378708363,1,-0.02614730782806873,1,0.04333850741386414,1,0.005461459048092365,1,-0.0006590135162696242,1,6.92143221385777e-05,1,3,1,0.1606936454772949,1,0.38212651014328,1,9.797884941101074,1
1778106286663285504,-0.01516593992710114,-0.03957322239875793,-0.995148241519928,-0.0001557936484459788,-0.0003986345836892724,-0.009943226352334023,,,,,,,,,,,,,,,,,,,,
1778106286666958848,,,,,,,0.01739823818206787,1,-0.02193358354270458,1,0.03833888471126556,1,0.005088298581540585,1,0.000410205393563956,1,0.0009854505769908428,1,3,1,0.16068035364151,1,0.382625013589859,1,9.79786491394043,1
1778106286673282816,-0.0150326807051897,-0.04011631011962891,-0.994789719581604,-0.0001488655543653294,-0.0004066113033331931,-0.009943858720362186,,,,,,,,,,,,,,,,,,,,
1778106286676950016,,,,,,,0.02289695851504803,1,-0.01561800763010979,1,0.03219672664999962,1,0.005064781289547682,1,7.406342774629593e-07,1,3.822569851763546e-06,1,3,1,0.160422071814537,1,0.383308470249176,1,9.797842979431152,1
1778106286683260416,-0.0149081340059638,-0.04086026549339294,-0.9948773980140686,-0.0001474885939387605,-0.0004164858546573669,-0.009949386119842529,,,,,,,,,,,,,,,,,,,,
1778106286686923008,,,,,,,0.0232210997492075,1,-0.007624912075698376,1,0.03506165742874146,1,0.005503998138010502,1,-0.0001583838457008824,1,0.0004507850389927626,1,3,1,0.1604164093732834,1,0.3838394582271576,1,9.797821998596191,1
1778106286693218560,-0.01475456543266773,-0.04154817387461662,-0.9946902990341187,-0.0001456106692785397,-0.0004227661702316254,-0.009944307617843151,,,,,,,,,,,,,,,,,,,,
1778106286696876800,,,,,,,0.02682006917893887,1,-0.002572515280917287,1,0.03686534985899925,1,0.006792557425796986,1,-0.0001231570640811697,1,-0.0006610237760469317,1,3,1,0.160425141453743,1,0.3844950497150421,1,9.797796249389648,1
1778106286703157248,-0.01460626348853111,-0.04117098823189735,-0.9951979517936707,-0.0001444782537873834,-0.0004079591017216444,-0.009958503767848015,,,,,,,,,,,,,,,,,,,,
1778106286706810624,,,,,,,0.02862721309065819,1,-0.004066695924848318,1,0.04513940587639809,1,0.008392150513827801,1,-0.0002310767595190555,1,-0.0006433551898226142,1,3,1,0.1604582220315933,1,0.3853243291378021,1,9.797762870788574,1
1778106286713075968,-0.0140392268076539,-0.04058467969298363,-0.9958220720291138,-0.0001341910392511636,-0.0003983881033491343,-0.009965277276933193,,,,,,,,,,,,,,,,,,,,
1778106286716725248,,,,,,,0.02875433675944805,1,-0.01030888967216015,1,0.05394185706973076,1,0.007498599123209715,1,0.0001973895850824192,1,-0.0001898392365546897,1,3,1,0.1604880839586258,1,0.3860715627670288,1,9.797733306884766,1
1778106286722976768,-0.01399850752204657,-0.03982736170291901,-0.9955278038978577,-0.0001390400429954752,-0.0003903467440977693,-0.009952076710760593,,,,,,,,,,,,,,,,,,,,
1778106286726798848,,,,,,,0.02514222078025341,1,-0.01594230346381664,1,0.05310017988085747,1,0.006211913656443357,1,0.0006899303989484906,1,1.314235123572871e-05,1,3,1,0.1604385226964951,1,0.3866909444332123,1,9.797709465026855,1
1778106286732858368,-0.013627914711833,-0.03937159851193428,-0.9953416585922241,-0.0001321982126682997,-0.0003878687275573611,-0.009951680898666382,,,,,,,,,,,,,,,,,,,,
1778106286737031680,,,,,,,0.02581316418945789,1,-0.0216650478541851,1,0.0490536130964756,1,0.006872017402201891,1,0.001181354513391852,1,1.67843681992963e-05,1,3,1,0.1603247970342636,1,0.3873904049396515,1,9.797683715820312,1
1778106286742720256,-0.01344279106706381,-0.03959186375141144,-0.9944952726364136,-0.0001319902803516015,-0.0003974222927354276,-0.009936137124896049,,,,,,,,,,,,,,,,,,,,
1778106286747244032,,,,,,,0.02502200566232204,1,-0.02384997718036175,1,0.03917953744530678,1,0.007017414551228285,1,-0.0001705446338746697,1,-8.765500388108194e-05,1,3,1,0.1603172421455383,1,0.3880625665187836,1,9.797657012939453,1
1778106286752562944,-0.01343169249594212,-0.04030218347907066,-0.993594765663147,-0.0001337665598839521,-0.0004104279796592891,-0.009925353340804577,,,,,,,,,,,,,,,,,,,,
1778106286757436416,,,,,,,0.01950178481638432,1,-0.02174055203795433,1,0.0389183945953846,1,0.007597485557198524,1,0.0007304383907467127,1,3.366849341546185e-05,1,3,1,0.1602649241685867,1,0.3887980282306671,1,9.797629356384277,1
1778106286762564864,-0.01379979588091373,-0.04094782844185829,-0.9936778545379639,-0.0001420296321157366,-0.0004165042482782155,-0.009936985559761524,,,,,,,,,,,,,,,,,,,,
1778106286767608320,,,,,,,0.01562299393117428,1,-0.02036283537745476,1,0.04190190508961678,1,0.006216371897608042,1,0.001259413314983249,1,0.0003791199414990842,1,3,1,0.1601458787918091,1,0.3894145488739014,1,9.797606468200684,1
1778106286772725760,-0.01372671592980623,-0.04160111024975777,-0.9940878748893738,-0.0001369428646285087,-0.0004230501363053918,-0.009944816119968891,,,,,,,,,,,,,,,,,,,,
1778106286777760512,,,,,,,0.01351300720125437,1,-0.01750418730080128,1,0.03842727094888687,1,0.006107937078922987,1,0.000377454241970554,1,-0.0002188231010222808,1,3,1,0.1601067185401917,1,0.3900148272514343,1,9.79758358001709,1
1778106286782866944,-0.01380167808383703,-0.04189290851354599,-0.9950921535491943,-0.000138441362651065,-0.0004228752804920077,-0.009963462129235268,,,,,,,,,,,,,,,,,,,,
1778106286787893504,,,,,,,0.01408980693668127,1,-0.0167063232511282,1,0.03441085666418076,1,0.007089979015290737,1,-0.0002500723348930478,1,-0.0002297978498972952,1,3,1,0.1600763350725174,1,0.3906741142272949,1,9.797557830810547,1
1778106286792988160,-0.01436122599989176,-0.04174824059009552,-0.9951159358024597,-0.0001494175085099414,-0.000415294780395925,-0.009952666237950325,,,,,,,,,,,,,,,,,,,,
1778106286798006016,,,,,,,0.01054805610328913,1,-0.01931653171777725,1,0.04108333960175514,1,0.008210099302232265,1,-0.0003499494923744351,1,-0.0007150779711082578,1,3,1,0.1600994765758514,1,0.3914878666400909,1,9.797524452209473,1
1778106286803089152,-0.0147502776235342,-0.04167766496539116,-0.9948090314865112,-0.000151855027070269,-0.0004164439451415092,-0.009943355806171894,,,,,,,,,,,,,,,,,,,,
1778106286808099072,,,,,,,0.008002335205674171,1,-0.02364321984350681,1,0.04915034770965576,1,0.007906350307166576,1,0.0008417019853368402,1,-0.0005253547569736838,1,3,1,0.1600722521543503,1,0.3922497928142548,1,9.797494888305664,1
1778106286813170176,-0.01495829038321972,-0.04145247861742973,-0.9951608180999756,-0.0001532442838652059,-0.0004113397735636681,-0.00995490700006485,,,,,,,,,,,,,,,,,,,,
1778106286818171904,,,,,,,0.008440209552645683,1,-0.02272176928818226,1,0.04790856316685677,1,0.006979568395763636,1,0.00104605290107429,1,-9.845983004197478e-05,1,3,1,0.1599674820899963,1,0.3929271697998047,1,9.797469139099121,1
1778106286823232000,-0.01489291526377201,-0.0414358414709568,-0.995567798614502,-0.0001478558697272092,-0.0004139299271628261,-0.009961787611246109,,,,,,,,,,,,,,,,,,,,
1778106286833274112,-0.01525175292044878,-0.04177279025316238,-0.9948846697807312,-0.0001567049039294943,-0.0004204477882012725,-0.00994148850440979,,,,,,,,,,,,,,,,,,,,
1778106286843296512,-0.01551101543009281,-0.04228858277201653,-0.9940590858459473,-0.0001578495721332729,-0.0004288507625460625,-0.00993075966835022,,,,,,,,,,,,,,,,,,,,
1778106286852332000,,,,,,,0.007564749103039503,1,-0.02035080455243587,1,0.04198572784662247,1,0.007167123258113861,1,0.0002934010117314756,1,9.880043216980994e-05,1,3,1,0.1599347442388535,1,0.3935852646827698,1,9.797443389892578,1
1778106286853298944,-0.01546138618141413,-0.04226843267679214,-0.994182825088501,-0.0001549495791550726,-0.0004228021134622395,-0.009942198172211647,,,,,,,,,,,,,,,,,,,,
1778106286862317056,,,,,,,0.005798830650746822,1,-0.01842337287962437,1,0.03829722106456757,1,0.008507015183568001,1,-0.0001100594090530649,1,0.0002990356006193906,1,3,1,0.1599897295236588,1,0.3944069147109985,1,9.797409057617188,1
1778106286863281664,-0.01554505061358213,-0.04209714382886887,-0.9947841167449951,-0.0001564178528496996,-0.0004191378538962454,-0.009955351240932941,,,,,,,,,,,,,,,,,,,,
1778106286872282624,,,,,,,-0.0008337667677551508,1,-0.01547142956405878,1,0.043475441634655,1,0.006256946828216314,1,0.0002245095674879849,1,0.0003340395051054657,1,3,1,0.1600180268287659,1,0.3950358927249908,1,9.797383308410645,1
1778106286873244672,-0.01572390832006931,-0.04197442531585693,-0.9951572418212891,-0.0001595279900357127,-0.0004173559136688709,-0.009956821799278259,,,,,,,,,,,,,,,,,,,,
1778106286882228224,,,,,,,-0.002150065498426557,1,-0.01626092940568924,1,0.04032139852643013,1,0.00636632926762104,1,0.001207233173772693,1,-0.0003731994947884232,1,3,1,0.1598987877368927,1,0.3956429660320282,1,9.797361373901367,1
1778106286883188224,-0.01640170067548752,-0.04174748435616493,-0.9946262836456299,-0.0001714966056169942,-0.0004157432995270938,-0.009939812123775482,,,,,,,,,,,,,,,,,,,,
1778106286892154368,,,,,,,-0.0006982618942856789,1,-0.02133301086723804,1,0.03110518306493759,1,0.00709571922197938,1,0.001422506524249911,1,-0.0005592296947725117,1,3,1,0.1597258895635605,1,0.3963692784309387,1,9.797334671020508,1
1778106286893112064,-0.01653309166431427,-0.0418960340321064,-0.994945228099823,-0.0001673139922786504,-0.0004204358556307852,-0.009952456690371037,,,,,,,,,,,,,,,,,,,,
1778106286902060800,,,,,,,-0.0019480986520648,1,-0.03008954599499702,1,0.03264928236603737,1,0.007658668328076601,1,0.0005357589107006788,1,-0.0007673607324250042,1,3,1,0.1595352739095688,1,0.3972903192043304,1,9.797300338745117,1
1778106286903016448,-0.0163756962865591,-0.04248246178030968,-0.9958823919296265,-0.0001617332600289956,-0.000431028485763818,-0.009968696162104607,,,,,,,,,,,,,,,,,,,,
1778106286911947776,,,,,,,-0.002697439631447196,1,-0.03243383765220642,1,0.03732091933488846,1,0.006617846433073282,1,-0.0005561860161833465,1,-0.0009443289018236101,1,3,1,0.1595935225486755,1,0.3979313671588898,1,9.797273635864258,1
1778106286912901120,-0.01648983918130398,-0.04345190897583961,-0.9957220554351807,-0.0001662403374211863,-0.0004449717816896737,-0.009956421330571175,,,,,,,,,,,,,,,,,,,,
1778106286921815040,,,,,,,-0.003654750995337963,1,-0.03438921645283699,1,0.04494123533368111,1,0.005436394829303026,1,-6.607241812162101e-05,1,-0.0005836654454469681,1,3,1,0.1596451103687286,1,0.3984660804271698,1,9.797250747680664,1
1778106286922766592,-0.01655734702944756,-0.04376764222979546,-0.995242714881897,-0.0001673542137723416,-0.0004408515815157443,-0.009946820326149464,,,,,,,,,,,,,,,,,,,,
1778106286931848704,,,,,,,-0.0002102090656990185,1,-0.02500671148300171,1,0.04718578979372978,1,0.005307712592184544,1,0.0005309453699737787,1,-0.0001593595079611987,1,3,1,0.1595677882432938,1,0.3990057110786438,1,9.797229766845703,1
1778106286932612096,-0.0166535098105669,-0.04403583705425262,-0.9944629073143005,-0.0001679400011198595,-0.0004440051561687142,-0.009935818612575531,,,,,,,,,,,,,,,,,,,,
1778106286942048512,,,,,,,0.001213081064634025,1,-0.01410969998687506,1,0.04298720881342888,1,0.005437043029814959,1,0.0004569317679852247,1,-0.0004497761256061494,1,3,1,0.1595121175050735,1,0.3995490074157715,1,9.797208786010742,1
1778106286942438400,-0.01629919931292534,-0.04314158856868744,-0.9942315220832825,-0.0001588777231518179,-0.0004211201448924839,-0.009939300827682018,,,,,,,,,,,,,,,,,,,,
1778106286952228352,,,,,,,-7.556369382655248e-05,1,-0.003095563966780901,1,0.03939785808324814,1,0.007379420101642609,1,-0.000178864152985625,1,-0.0002850254531949759,1,3,1,0.1595108509063721,1,0.4002576768398285,1,9.79718017578125,1
1778106286952616960,-0.01614947803318501,-0.04208946228027344,-0.9946573972702026,-0.0001599979150341824,-0.0004088195855729282,-0.009951235726475716,,,,,,,,,,,,,,,,,,,,
1778106286962387968,,,,,,,-0.003359355265274644,1,-0.0008776735048741102,1,0.04081577435135841,1,0.00739624910056591,1,-6.670448055956513e-05,1,-0.0003929421072825789,1,3,1,0.1594991534948349,1,0.4009629189968109,1,9.797151565551758,1
1778106286962775552,-0.01627698540687561,-0.04102736711502075,-0.9950209259986877,-0.0001641699927859008,-0.000397571682697162,-0.009955010376870632,,,,,,,,,,,,,,,,,,,,
1778106286972527616,,,,,,,-0.005891634151339531,1,-0.009061288088560104,1,0.04294785112142563,1,0.006668319460004568,1,0.0004592089389916509,1,-0.001195389195345342,1,3,1,0.1594739705324173,1,0.4016484022140503,1,9.797123908996582,1
1778106286972914176,-0.01660944893956184,-0.04086761176586151,-0.9948736429214478,-0.0001697997795417905,-0.0004062170046381652,-0.009947257116436958,,,,,,,,,,,,,,,,,,,,
1778106286982647296,,,,,,,-0.008957227692008018,1,-0.02300778962671757,1,0.04294710606336594,1,0.00757516035810113,1,0.0004155382048338652,1,-0.001131221186369658,1,3,1,0.1594175845384598,1,0.4024052917957306,1,9.797093391418457,1
1778106286983032832,-0.01686652563512325,-0.04177159816026688,-0.9946534633636475,-0.0001714614627417177,-0.000426940358011052,-0.009943192824721336,,,,,,,,,,,,,,,,,,,,
1778106286992747776,,,,,,,-0.007463462185114622,1,-0.03761263936758041,1,0.04222018271684647,1,0.005847391206771135,1,0.0001351037353742868,1,-0.001379361608996987,1,3,1,0.1594202369451523,1,0.4029872417449951,1,9.797069549560547,1
1778106286993131520,-0.01717548631131649,-0.04326476156711578,-0.9946507215499878,-0.0001754654076648876,-0.0004487298720050603,-0.009947711601853371,,,,,,,,,,,,,,,,,,,,
1778106287002828288,,,,,,,-0.00501775648444891,1,-0.04185270145535469,1,0.04034483060240746,1,0.004969526547938585,1,0.0005879146629013121,1,-0.0005802477244287729,1,3,1,0.1593720316886902,1,0.4034612476825714,1,9.797050476074219,1
1778106287003210752,-0.01702076196670532,-0.04482326284050941,-0.9947220087051392,-0.0001684825256234035,-0.0004665161832235754,-0.00994794350117445,,,,,,,,,,,,,,,,,,,,
1778106287012889088,,,,,,,-0.001491333125159144,1,-0.03893093764781952,1,0.03711944073438644,1,0.002866931259632111,1,0.00079417071538046,1,-7.772630488034338e-05,1,3,1,0.1593013405799866,1,0.40378737449646,1,9.797038078308105,1
1778106287013270528,-0.0167686827480793,-0.0453169047832489,-0.9949107766151428,-0.0001647062163101509,-0.0004596620856318623,-0.009951045736670494,,,,,,,,,,,,,,,,,,,,
1778106287022929664,,,,,,,0.005965102929621935,1,-0.02832601964473724,1,0.02855580858886242,1,0.003092573024332523,1,0.0009625047096051276,1,0.0002198901493102312,1,3,1,0.1592090427875519,1,0.4040527939796448,1,9.797029495239258,1
1778106287023310336,-0.01640471443533897,-0.04507135227322578,-0.9952375292778015,-0.000160195559146814,-0.0004486055113375187,-0.009956005029380322,,,,,,,,,,,,,,,,,,,,
1778106287032950784,,,,,,,0.01227644737809896,1,-0.01660330034792423,1,0.02513982728123665,1,0.002662786049768329,1,-0.0001138439838541672,1,0.0001390058459946886,1,3,1,0.1592015027999878,1,0.4043347835540771,1,9.797017097473145,1
1778106287033330176,-0.01563803292810917,-0.0440300777554512,-0.9961091876029968,-0.0001478989288443699,-0.0004292981175240129,-0.009970932267606258,,,,,,,,,,,,,,,,,,,,
1778106287042951936,,,,,,,0.01716248691082001,1,-0.01265574805438519,1,0.03491142019629478,1,0.003220441751182079,1,-0.0008819131762720644,1,9.990171383833513e-05,1,3,1,0.1592832058668137,1,0.4046580195426941,1,9.797002792358398,1
1778106287043330560,-0.01498854532837868,-0.04287055879831314,-0.9964561462402344,-0.000141523007187061,-0.0004148015577811748,-0.009969804435968399,,,,,,,,,,,,,,,,,,,,
1778106287052933376,,,,,,,0.02455818094313145,1,-0.01538303960114717,1,0.04424771666526794,1,0.003141122404485941,1,-0.001112048048526049,1,-0.0008419521036557853,1,3,1,0.1593401283025742,1,0.4049312472343445,1,9.796990394592285,1
1778106287053310720,-0.01448943745344877,-0.0425013042986393,-0.9954583048820496,-0.000138872186653316,-0.0004195997316855937,-0.009944677352905273,,,,,,,,,,,,,,,,,,,,
1778106287062894848,,,,,,,0.03175614401698112,1,-0.02211355604231358,1,0.04921266809105873,1,0.003860166063532233,1,-0.0001765886263456196,1,-0.001306182704865932,1,3,1,0.1593962162733078,1,0.405288964509964,1,9.796975135803223,1
1778106287063271424,-0.01373739819973707,-0.04281054064631462,-0.9945050477981567,-0.0001282009616261348,-0.0004311070952098817,-0.009934026747941971,,,,,,,,,,,,,,,,,,,,
1778106287072837120,,,,,,,0.03312582895159721,1,-0.0270567424595356,1,0.05161025375127792,1,0.002766866004094481,1,-0.0001466804824303836,1,-0.000383776961825788,1,3,1,0.1594032943248749,1,0.4055559933185577,1,9.796963691711426,1
1778106287073212416,-0.01300883572548628,-0.04352889582514763,-0.99399733543396,-0.0001215832380694337,-0.0004424866056069732,-0.009933223947882652,,,,,,,,,,,,,,,,,,,,
1778106287082759424,,,,,,,0.03588894009590149,1,-0.02607578411698341,1,0.04716867953538895,1,0.002960427897050977,1,0.0003175280289724469,1,8.81943415151909e-05,1,3,1,0.1593434810638428,1,0.4058300852775574,1,9.796953201293945,1
1778106287083133696,-0.01287234108895063,-0.04406507313251495,-0.9937514066696167,-0.0001265828759642318,-0.000447416357928887,-0.009934677742421627,,,,,,,,,,,,,,,,,,,,
1778106287092662016,,,,,,,0.03909312933683395,1,-0.01940911076962948,1,0.03537106886506081,1,0.002806351520121098,1,0.0004118261858820915,1,0.0003662945528049022,1,3,1,0.1592727899551392,1,0.4061006903648376,1,9.796943664550781,1
1778106287093035520,-0.01259063184261322,-0.04399485513567924,-0.9942031502723694,-0.000122422308777459,-0.0004396149597596377,-0.009946395643055439,,,,,,,,,,,,,,,,,,,,
1778106287102545152,,,,,,,0.03908461704850197,1,-0.01045509520918131,1,0.02883611060678959,1,0.003971868194639683,1,0.0003481668827589601,1,0.0004718734126072377,1,3,1,0.1591600179672241,1,0.4066841304302216,1,9.796920776367188,1
1778106287102917376,-0.01226056832820177,-0.04334422945976257,-0.9954050183296204,-0.0001186126828542911,-0.0004265826719347388,-0.009967331774532795,,,,,,,,,,,,,,,,,,,,
1778106287112409088,,,,,,,0.03856468573212624,1,-0.004267379641532898,1,0.0333690233528614,1,0.00465096952393651,1,-0.0006765018333680928,1,-0.0004427957755979151,1,3,1,0.1592207551002502,1,0.4071608781814575,1,9.796899795532227,1
1778106287112780032,-0.01225571893155575,-0.04246781021356583,-0.9960700869560242,-0.0001223170838784426,-0.0004147706204093993,-0.009968897327780724,,,,,,,,,,,,,,,,,,,,
1778106287122438912,,,,,,,0.03805577754974365,1,-0.005860740784555674,1,0.04169415682554245,1,0.004814486484974623,1,0.0001865189406089485,1,-0.0003351848572492599,1,3,1,0.1591642647981644,1,0.4076620042324066,1,9.796880722045898,1
1778106287122623232,-0.01230505760759115,-0.04188180714845657,-0.9956060647964478,-0.0001235661620739847,-0.000410829612519592,-0.009951144456863403,,,,,,,,,,,,,,,,,,,,
1778106287132447232,-0.01235418114811182,-0.04209171980619431,-0.9947552084922791,-0.0001236080570379272,-0.0004226079327054322,-0.009937996976077557,,,,,,,,,,,,,,,,,,,,
1778106287132634624,,,,,,,0.03715721890330315,1,-0.01107636000961065,1,0.04642705246806145,1,0.004008795134723186,1,0.0004781461320817471,1,-0.000528136093635112,1,3,1,0.1591201424598694,1,0.408082902431488,1,9.796863555908203,1
1778106287142622720,-0.01244276482611895,-0.04267032071948051,-0.9942706823348999,-0.000125911901704967,-0.0004330032679717988,-0.009937390685081482,,,,,,,,,,,,,,,,,,,,
1778106287142810880,,,,,,,0.03549931570887566,1,-0.01471503078937531,1,0.04527699202299118,1,0.004914246965199709,1,-0.0004999559605494142,1,-6.101276085246354e-05,1,3,1,0.1591384261846542,1,0.4085514545440674,1,9.796843528747559,1
1778106287152778752,-0.01260917913168669,-0.04308688268065453,-0.9943860769271851,-0.00012815828085877,-0.000435622176155448,-0.009945116937160492,,,,,,,,,,,,,,,,,,,,
1778106287152967168,,,,,,,0.03349503129720688,1,-0.01840977929532528,1,0.04545851424336433,1,0.005070419050753117,1,-0.001269003376364708,1,8.025666829780675e-06,1,3,1,0.1591984927654266,1,0.4090281426906586,1,9.796822547912598,1
1778106287162914816,-0.0128133799880743,-0.04351043328642845,-0.9943656325340271,-0.0001305576879531145,-0.000439359457232058,-0.009943142533302307,,,,,,,,,,,,,,,,,,,,
1778106287163103232,,,,,,,0.03301924467086792,1,-0.0183855015784502,1,0.04373229295015335,1,0.004437018185853958,1,0.000934648560360074,1,0.0005484120920300484,1,3,1,0.1591455042362213,1,0.4094913005828857,1,9.796804428100586,1
1778106287173031168,-0.01286346465349197,-0.04355604574084282,-0.9945396780967712,-0.000129463616758585,-0.0004368545487523079,-0.009946567006409168,,,,,,,,,,,,,,,,,,,,
1778106287173219840,,,,,,,0.03485939279198647,1,-0.01222923770546913,1,0.03695060312747955,1,0.00606482895091176,1,0.0008317507454194129,1,-0.0005799800273962319,1,3,1,0.1590430289506912,1,0.4100701510906219,1,9.796781539916992,1
1778106287183127808,-0.01267140451818705,-0.04297828301787376,-0.995229184627533,-0.0001253138179890811,-0.0004229752812534571,-0.009959942661225796,,,,,,,,,,,,,,,,,,,,
1778106287183316992,,,,,,,0.03659088164567947,1,-0.004153345711529255,1,0.03298559039831161,1,0.007893906906247139,1,-0.001052560633979738,1,-0.0008431654423475266,1,3,1,0.159132644534111,1,0.4108380079269409,1,9.796748161315918,1
1778106287193204736,-0.01249325275421143,-0.04221416637301445,-0.9956310987472534,-0.0001226366584887728,-0.0004126249114051461,-0.009962094947695732,,,,,,,,,,,,,,,,,,,,
1778106287193395456,,,,,,,0.03138158842921257,1,0.0001016830938169733,1,0.0405607633292675,1,0.00826204102486372,1,-0.0006075991550460458,1,-0.0005757213803008199,1,3,1,0.1591823697090149,1,0.411629319190979,1,9.796713829040527,1
1778106287203262976,-0.01302696298807859,-0.0418490432202816,-0.9948557019233704,-0.0001356655557174236,-0.0004135307972319424,-0.009940196759998798,,,,,,,,,,,,,,,,,,,,
1778106287203454720,,,,,,,0.02935588918626308,1,0.002847146242856979,1,0.04919666796922684,1,0.008301636204123497,1,-0.0002676577132660896,1,-0.0008095091907307506,1,3,1,0.1592300832271576,1,0.4124743938446045,1,9.796677589416504,1
1778106287213302016,-0.01323774922639132,-0.04164586216211319,-0.9939717650413513,-0.0001348182704532519,-0.0004136142961215228,-0.00992886908352375,,,,,,,,,,,,,,,,,,,,
1778106287213494272,,,,,,,0.02879458293318748,1,-0.0001640617847442627,1,0.05004376173019409,1,0.009283112362027168,1,0.0002046303852694109,1,-0.001269344822503626,1,3,1,0.1592308729887009,1,0.4133866429328918,1,9.796639442443848,1
1778106287223321856,-0.01329818088561296,-0.04203499481081963,-0.9938818216323853,-0.0001333541003987193,-0.000423625810071826,-0.009936767630279064,,,,,,,,,,,,,,,,,,,,
1778106287223514368,,,,,,,0.02798528783023357,1,-0.004734029062092304,1,0.04555759951472282,1,0.0108436718583107,1,0.0002588257775641978,1,-0.001198322861455381,1,3,1,0.159198597073555,1,0.4144438803195953,1,9.796595573425293,1
1778106287233321984,-0.01338099502027035,-0.04259195551276207,-0.9943354725837708,-0.0001349943922832608,-0.000432089640526101,-0.009948029182851315,,,,,,,,,,,,,,,,,,,,
1778106287233515264,,,,,,,0.02657910995185375,1,-0.01030919048935175,1,0.03975685313344002,1,0.01229737140238285,1,0.0006817669491283596,1,-0.001349015743471682,1,3,1,0.1591600924730301,1,0.4156155586242676,1,9.79654598236084,1
1778106287243303168,-0.01352357305586338,-0.0432618148624897,-0.9949226975440979,-0.0001364889758406207,-0.0004394331481307745,-0.009955443441867828,,,,,,,,,,,,,,,,,,,,
1778106287243496192,,,,,,,0.02918238006532192,1,-0.01548951398581266,1,0.03590068221092224,1,0.01275236532092094,1,-0.0006680100923404098,1,-0.0009400739218108356,1,3,1,0.1592095494270325,1,0.4168907999992371,1,9.796490669250488,1
1778106287253264384,-0.01325710769742727,-0.04390362277626991,-0.9953111410140991,-0.0001301283482462168,-0.0004459517658688128,-0.009957741945981979,,,,,,,,,,,,,,,,,,,,
1778106287253457664,,,,,,,0.03047589398920536,1,-0.01385987363755703,1,0.03364656120538712,1,0.01230681594461203,1,-0.0001563469413667917,1,-0.000625904998742044,1,3,1,0.1592185795307159,1,0.4180948138237,1,9.796440124511719,1
1778106287263206144,-0.01312634814530611,-0.04385623335838318,-0.9955359101295471,-0.0001293999521294609,-0.000438258022768423,-0.00995820015668869,,,,,,,,,,,,,,,,,,,,
1778106287263399680,,,,,,,0.03290151059627533,1,-0.008409982547163963,1,0.03752399608492851,1,0.01251811068505049,1,-0.0003618733899202198,1,3.073373954975978e-05,1,3,1,0.1592318266630173,1,0.4193345010280609,1,9.79638671875,1
1778106287273128192,-0.01287979818880558,-0.04342225566506386,-0.9951353669166565,-0.0001260014105355367,-0.0004292912781238556,-0.009946506470441818,,,,,,,,,,,,,,,,,,,,
1778106287273322240,,,,,,,0.0410228930413723,1,1.752993557602167e-05,1,0.04058079421520233,1,0.0131734749302268,1,-0.000754605745896697,1,-2.804874384310097e-05,1,3,1,0.1593009829521179,1,0.4206220805644989,1,9.796330451965332,1
1778106287283031296,-0.01205447036772966,-0.04268783330917358,-0.9948182702064514,-0.0001111127567128278,-0.0004184443387202919,-0.00994443241506815,,,,,,,,,,,,,,,,,,,,
1778106287283225344,,,,,,,0.0495750829577446,1,0.004940723069012165,1,0.04404494538903236,1,0.01516212709248066,1,-0.001058047520928085,1,-0.0003331976186018437,1,3,1,0.1593920588493347,1,0.4220735728740692,1,9.796266555786133,1
1778106287292914944,-0.01118784304708242,-0.04231756925582886,-0.9944592714309692,-0.0001009103507385589,-0.000417644070694223,-0.009940551593899727,,,,,,,,,,,,,,,,,,,,
1778106287293108736,,,,,,,0.05421147495508194,1,0.006366565357893705,1,0.0484950989484787,1,0.01511431857943535,1,0.0001655728847254068,1,-0.0005875673959963024,1,3,1,0.1593567132949829,1,0.4235080182552338,1,9.796204566955566,1
1778106287302779136,-0.01071873866021633,-0.04231108725070953,-0.9939994812011719,-0.000101295838248916,-0.0004216245142742991,-0.009934620931744576,,,,,,,,,,,,,,,,,,,,
1778106287302972928,,,,,,,0.05766291916370392,1,0.004498338792473078,1,0.04672176018357277,1,0.01700506545603275,1,-4.008055839221925e-06,1,-0.0003910798986908048,1,3,1,0.1589889526367188,1,0.4252185225486755,1,9.796136856079102,1
1778106287312624128,-0.01035691797733307,-0.04265172779560089,-0.994174063205719,-9.955227142199874e-05,-0.0004298221610952169,-0.009943339042365551,,,,,,,,,,,,,,,,,,,,
1778106287312997120,,,,,,,0.06114860251545906,1,0.0005554723902605474,1,0.0386965237557888,1,0.01653821393847466,1,0.0002752867003437132,1,-0.0007974322070367634,1,3,1,0.1589627712965012,1,0.4268126785755157,1,9.79606819152832,1
1778106287322629120,-0.00998957920819521,-0.04321196675300598,-0.9949857592582703,-9.608711116015911e-05,-0.0004376937285996974,-0.009957980364561081,,,,,,,,,,,,,,,,,,,,
1778106287323181312,,,,,,,0.06689723581075668,1,-0.003563459729775786,1,0.03679191321134567,1,0.01786007732152939,1,-0.000991755397990346,1,0.0002276379673276097,1,3,1,0.1590599864721298,1,0.4285293817520142,1,9.795990943908691,1
1778106287332794112,-0.009398667141795158,-0.04379504546523094,-0.9951729774475098,-8.67303169798106e-05,-0.0004439085896592587,-0.009955288842320442,,,,,,,,,,,,,,,,,,,,
1778106287333345536,,,,,,,0.06658860296010971,1,-0.00598098011687398,1,0.0384213775396347,1,0.01768793724477291,1,0.0005213425029069185,1,0.0006721873069182038,1,3,1,0.1590106338262558,1,0.4302418231964111,1,9.795917510986328,1
1778106287342939392,-0.009428480640053749,-0.04421048611402512,-0.9949994087219238,-9.497005521552637e-05,-0.0004461442003957927,-0.009948751889169216,,,,,,,,,,,,,,,,,,,,
1778106287343489792,,,,,,,0.06639530509710312,1,-0.00741525087505579,1,0.04208052158355713,1,0.0181990172713995,1,0.0005047983722761273,1,0.0008923217537812889,1,3,1,0.1589606404304504,1,0.4320003092288971,1,9.795840263366699,1
1778106287353064192,-0.009444724768400192,-0.04452944174408913,-0.9946187734603882,-9.527555812383071e-05,-0.0004486828693188727,-0.009940170682966709,,,,,,,,,,,,,,,,,,,,
1778106287353614080,,,,,,,0.06852243095636368,1,-0.01008928567171097,1,0.04539588838815689,1,0.01783882081508636,1,0.0002081998100038618,1,0.0003999467589892447,1,3,1,0.1589129716157913,1,0.4337271153926849,1,9.795764923095703,1
1778106287363169536,-0.009223436005413532,-0.04497716575860977,-0.9942730665206909,-8.88804133865051e-05,-0.0004543881514109671,-0.009938858449459076,,,,,,,,,,,,,,,,,,,,
1778106287363718144,,,,,,,0.06604323536157608,1,-0.008888064883649349,1,0.04572354257106781,1,0.01778681389987469,1,-0.0004742674063891172,1,0.0002988989581353962,1,3,1,0.1589794903993607,1,0.4354445934295654,1,9.795687675476074,1
1778106287373254400,-0.009475571103394032,-0.04502980411052704,-0.9942319393157959,-9.720252273837104e-05,-0.0004503507225308567,-0.009941769763827324,,,,,,,,,,,,,,,,,,,,
1778106287373803008,,,,,,,0.06738241016864777,1,-0.006317829713225365,1,0.0439809262752533,1,0.01890995167195797,1,0.0001695211394689977,1,0.0003041356394533068,1,3,1,0.1589426845312119,1,0.4372944533824921,1,9.795605659484863,1
1778106287383319808,-0.009338428266346455,-0.04494663327932358,-0.994401752948761,-9.152479469776154e-05,-0.0004474602174013853,-0.009946252219378948,,,,,,,,,,,,,,,,,,,,
1778106287383868160,,,,,,,0.0686253234744072,1,-0.0004993262700736523,1,0.03957660123705864,1,0.01803991198539734,1,0.0003009327920153737,1,0.001859369222074747,1,3,1,0.1589082032442093,1,0.4390812814235687,1,9.795526504516602,1
1778106287393365760,-0.009209607727825642,-0.04453562572598457,-0.9948428273200989,-9.138607856584713e-05,-0.0004402643244247884,-0.009953420609235764,,,,,,,,,,,,,,,,,,,,
1778106287393913344,,,,,,,0.07255728542804718,1,0.007108642719686031,1,0.02983905002474785,1,0.01938780583441257,1,0.0008544077281840146,1,0.001742396969348192,1,3,1,0.1588610410690308,1,0.4409392476081848,1,9.795443534851074,1
1778106287403392000,-0.008806345984339714,-0.04394287243485451,-0.9958276152610779,-8.418247307417914e-05,-0.0004314925754442811,-0.00996825098991394,,,,,,,,,,,,,,,,,,,,
1778106287403938304,,,,,,,0.07649863511323929,1,0.01020787190645933,1,0.02651261910796165,1,0.01981358975172043,1,0.0001712468365440145,1,0.001126553281210363,1,3,1,0.1588543802499771,1,0.4428544044494629,1,9.795357704162598,1
1778106287413398016,-0.00840148888528347,-0.0438147634267807,-0.9961584806442261,-7.991634629433975e-05,-0.0004349890223238617,-0.009965695440769196,,,,,,,,,,,,,,,,,,,,
1778106287413943808,,,,,,,0.07746440917253494,1,0.003847573883831501,1,0.02699460089206696,1,0.02037635631859303,1,0.0003211911825928837,1,0.001607427722774446,1,3,1,0.1588648855686188,1,0.4448650479316711,1,9.795266151428223,1
1778106287423384576,-0.008302342146635056,-0.04465792700648308,-0.9961005449295044,-8.150383655447513e-05,-0.000453684973763302,-0.009961977601051331,,,,,,,,,,,,,,,,,,,,
1778106287423929344,,,,,,,0.07925421744585037,1,-0.008377480320632458,1,0.0345831997692585,1,0.0193700734525919,1,0.0002071931958198547,1,0.00168815883807838,1,3,1,0.1588567495346069,1,0.4467743933200836,1,9.79517936706543,1
1778106287433351168,-0.008118775673210621,-0.04610131680965424,-0.995317816734314,-7.95643063611351e-05,-0.0004775698180310428,-0.009942000731825829,,,,,,,,,,,,,,,,,,,,
1778106287433895168,,,,,,,0.0837741494178772,1,-0.01623089052736759,1,0.03869159519672394,1,0.02055242098867893,1,0.0002534739323891699,1,0.001859839074313641,1,3,1,0.1587917506694794,1,0.4487942755222321,1,9.795087814331055,1
1778106287443297792,-0.007654529064893723,-0.04710047319531441,-0.9948899745941162,-7.031180575722829e-05,-0.0004822551272809505,-0.009943252429366112,,,,,,,,,,,,,,,,,,,,
1778106287443841280,,,,,,,0.0898497998714447,1,-0.01407000049948692,1,0.04278631135821342,1,0.02136036194860935,1,-0.0008862320682965219,1,0.002243723487481475,1,3,1,0.1588857173919678,1,0.4509080052375793,1,9.794989585876465,1
1778106287453225216,-0.007035314571112394,-0.04708477854728699,-0.9944630861282349,-6.248499994399026e-05,-0.0004704218008555472,-0.009941102936863899,,,,,,,,,,,,,,,,,,,,
1778106287453768192,,,,,,,0.0935402438044548,1,-0.00147091003600508,1,0.04959036782383919,1,0.02301342040300369,1,-0.0004481444775592536,1,0.002997232601046562,1,3,1,0.1589325517416,1,0.4530969262123108,1,9.794887542724609,1
1778106287463133184,-0.006662153173238039,-0.04601036757230759,-0.9937595725059509,-6.257098721107468e-05,-0.0004471232823561877,-0.009929882362484932,,,,,,,,,,,,,,,,,,,,
1778106287463675392,,,,,,,0.09723322093486786,1,0.01543010026216507,1,0.0522134006023407,1,0.02389209158718586,1,0.0009634444722905755,1,0.002700452227145433,1,3,1,0.1588336229324341,1,0.4554372131824493,1,9.794780731201172,1
1778106287473021440,-0.006285632029175758,-0.04450861737132072,-0.9934819340705872,-5.937652531429194e-05,-0.0004265311872586608,-0.009930722415447235,,,,,,,,,,,,,,,,,,,,
1778106287473562880,,,,,,,0.09870056062936783,1,0.02689716033637524,1,0.0496722124516964,1,0.02556261233985424,1,0.0008675116114318371,1,0.002436329377815127,1,3,1,0.1588149517774582,1,0.4579058587551117,1,9.794666290283203,1
1778106287482890496,-0.006134507246315479,-0.04357137531042099,-0.9937303066253662,-5.86003516218625e-05,-0.0004232378269080073,-0.009939979761838913,,,,,,,,,,,,,,,,,,,,
1778106287483430912,,,,,,,0.09508121758699417,1,0.02447023056447506,1,0.04454103857278824,1,0.02613184228539467,1,0.001132566132582724,1,0.002186833648011088,1,3,1,0.1587140560150146,1,0.4604372382164001,1,9.794548988342285,1
1778106287492739584,-0.006498624570667744,-0.04406199604272842,-0.994242250919342,-6.904087058501318e-05,-0.0004445003578439355,-0.009948461316525936,,,,,,,,,,,,,,,,,,,,
1778106287493278976,,,,,,,0.08847445249557495,1,0.006522782612591982,1,0.03830719739198685,1,0.02639156207442284,1,0.002304164692759514,1,0.002544597256928682,1,3,1,0.1585503667593002,1,0.4629974961280823,1,9.794430732727051,1
1778106287502569216,-0.007164213340729475,-0.0461432971060276,-0.9948663711547852,-7.8302196925506e-05,-0.0004841760091949254,-0.009955423884093761,,,,,,,,,,,,,,,,,,,,
1778106287503476992,,,,,,,0.08136333525180817,1,-0.01697593741118908,1,0.03607236593961716,1,0.02565513364970684,1,0.0008113915100693703,1,0.002489959821105003,1,3,1,0.1581016331911087,1,0.4655709266662598,1,9.794316291809082,1
1778106287512564224,-0.007866447791457176,-0.04879643768072128,-0.9950825572013855,-8.609888755017892e-05,-0.0005171193042770028,-0.009953239932656288,,,,,,,,,,,,,,,,,,,,
1778106287513655040,,,,,,,0.07162623107433319,1,-0.04332024976611137,1,0.04032448306679726,1,0.02399796433746815,1,0.00133599853143096,1,0.003006210783496499,1,3,1,0.1580122411251068,1,0.4679841697216034,1,9.79420280456543,1
1778106287522724096,-0.008838620036840439,-0.05173855274915695,-0.9946372509002686,-9.856142423814163e-05,-0.0005492084310390055,-0.009943551383912563,,,,,,,,,,,,,,,,,,,,
1778106287523812608,,,,,,,0.06224849820137024,1,-0.05351652577519417,1,0.0455511063337326,1,0.02170138247311115,1,0.001218437100760639,1,0.003918976988643408,1,3,1,0.1579092890024185,1,0.4701041877269745,1,9.794102668762207,1
1778106287532863744,-0.00977857131510973,-0.0530204139649868,-0.9940930008888245,-0.0001088238786906004,-0.0005448657320812345,-0.009934686124324799,,,,,,,,,,,,,,,,,,,,
1778106287533950464,,,,,,,0.05464687943458557,1,-0.04740888625383377,1,0.04604563117027283,1,0.02089251391589642,1,0.001222060760483146,1,0.004526967648416758,1,3,1,0.1578106731176376,1,0.4721537530422211,1,9.794005393981934,1
1778106287542982912,-0.01054015010595322,-0.05262583121657372,-0.9940319061279297,-0.0001151979886344634,-0.0005219016456976533,-0.009939604438841343,,,,,,,,,,,,,,,,,,,,
1778106287544068608,,,,,,,0.0521613135933876,1,-0.02906207181513309,1,0.0420648381114006,1,0.02080587297677994,1,0.0003910604282282293,1,0.004020866006612778,1,3,1,0.1578093022108078,1,0.4741980731487274,1,9.793907165527344,1
1778106287553083136,-0.0107844639569521,-0.05097391456365585,-0.994427502155304,-0.0001114399929065257,-0.0004907741094939411,-0.009948339313268661,,,,,,,,,,,,,,,,,,,,
1778106287554166528,,,,,,,0.04832379892468452,1,-0.007829161360859871,1,0.03989158943295479,1,0.02328117936849594,1,0.000191753584658727,1,0.003003286896273494,1,3,1,0.1578087508678436,1,0.4763971567153931,1,9.793800354003906,1
1778106287563163136,-0.0111705781891942,-0.04902546480298042,-0.9946387410163879,-0.0001155486752395518,-0.0004673795774579048,-0.009948935359716415,,,,,,,,,,,,,,,,,,,,
1778106287564244736,,,,,,,0.0442277155816555,1,0.007208849303424358,1,0.03980949893593788,1,0.02581346780061722,1,0.0005563439335674047,1,0.001798482844606042,1,3,1,0.1577621102333069,1,0.4788763821125031,1,9.793680191040039,1
1778106287573223168,-0.01158413663506508,-0.04772098362445831,-0.9946359992027283,-0.0001206023734994233,-0.0004607075825333595,-0.009946376085281372,,,,,,,,,,,,,,,,,,,,
1778106287574302976,,,,,,,0.03549659624695778,1,0.009673339314758778,1,0.04308588802814484,1,0.02644378133118153,1,0.001743423286825418,1,0.001679581124335527,1,3,1,0.1575931459665298,1,0.4815324544906616,1,9.793552398681641,1
1778106287583263488,-0.01246673054993153,-0.04771647602319717,-0.9942900538444519,-0.0001349122903775424,-0.0004750979423988611,-0.009939050301909447,,,,,,,,,,,,,,,,,,,,
1778106287584341248,,,,,,,0.02526680566370487,1,0.001503954641520977,1,0.04784902185201645,1,0.0258316732943058,1,0.001530262525193393,1,0.002403834136202931,1,3,1,0.1574550271034241,1,0.4841288626194,1,9.793426513671875,1
1778106287593283584,-0.01349847204983234,-0.04880581051111221,-0.9937919974327087,-0.0001469003327656537,-0.000498519279062748,-0.009930902160704136,,,,,,,,,,,,,,,,,,,,
1778106287594359808,,,,,,,0.01118864864110947,1,-0.01288930140435696,1,0.05204090476036072,1,0.02569594420492649,1,0.000739334907848388,1,0.002184130717068911,1,3,1,0.1573661118745804,1,0.4866222441196442,1,9.793304443359375,1
1778106287603284224,-0.01492239907383919,-0.05052904039621353,-0.9933521747589111,-0.0001654742518439889,-0.0005235308781266212,-0.009929179213941097,,,,,,,,,,,,,,,,,,,,
1778106287604358400,,,,,,,-0.00373028963804245,1,-0.02893320843577385,1,0.0526527538895607,1,0.02558805607259274,1,0.002738323993980885,1,0.00235998653806746,1,3,1,0.1571056991815567,1,0.4891392886638641,1,9.793183326721191,1
1778106287613265152,-0.01642934419214725,-0.05242118239402771,-0.9932774305343628,-0.0001815308060031384,-0.0005444166017696261,-0.009932053275406361,,,,,,,,,,,,,,,,,,,,
1778106287614337280,,,,,,,-0.0183255597949028,1,-0.04508447274565697,1,0.04546684399247169,1,0.02471700496971607,1,0.002373246243223548,1,0.000597359670791775,1,3,1,0.1568757295608521,1,0.4915685653686523,1,9.793066024780273,1
1778106287623226368,-0.01789813116192818,-0.05432228371500969,-0.9939978718757629,-0.000195889690076001,-0.0005637526628561318,-0.009948286227881908,,,,,,,,,,,,,,,,,,,,
1778106287624296704,,,,,,,-0.03192202374339104,1,-0.05564458295702934,1,0.03390633687376976,1,0.02309667691588402,1,0.002941059414297342,1,0.0005996656836941838,1,3,1,0.1565992832183838,1,0.4938737452030182,1,9.792954444885254,1
1778106287633168128,-0.0192624069750309,-0.05564761161804199,-0.995164692401886,-0.0002087803732138127,-0.0005712576094083488,-0.009964320808649063,,,,,,,,,,,,,,,,,,,,
1778106287634236416,,,,,,,-0.04136110842227936,1,-0.0592828057706356,1,0.0248117558658123,1,0.0233761016279459,1,0.0004159288946539164,1,-0.0005834147450514138,1,3,1,0.156513437628746,1,0.4961926937103271,1,9.792838096618652,1
1778106287643089920,-0.02020381391048431,-0.056260596960783,-0.9960802793502808,-0.0002123801823472604,-0.0005688579403795302,-0.009971185587346554,,,,,,,,,,,,,,,,,,,,
1778106287644156160,,,,,,,-0.05051184073090553,1,-0.0574277825653553,1,0.02526015043258667,1,0.02234502695500851,1,-0.000833064375910908,1,-0.0005474532372318208,1,3,1,0.1565183252096176,1,0.4984286725521088,1,9.792724609375,1
1778106287652992000,-0.02112375199794769,-0.05630906298756599,-0.9960227012634277,-0.0002206587960245088,-0.0005630722153000534,-0.009961388073861599,,,,,,,,,,,,,,,,,,,,
1778106287654056448,,,,,,,-0.05786321312189102,1,-0.04992885515093803,1,0.03248362988233566,1,0.01944351755082607,1,0.0005880968528799713,1,0.0007032397552393377,1,3,1,0.1565095037221909,1,0.5003290772438049,1,9.792628288269043,1
1778106287662874624,-0.02186849899590015,-0.05576769262552261,-0.9952749013900757,-0.0002282178611494601,-0.0005507937748916447,-0.009945254772901535,,,,,,,,,,,,,,,,,,,,
1778106287663937024,,,,,,,-0.06279904395341873,1,-0.04338571056723595,1,0.04023794457316399,1,0.01763559877872467,1,0.001498101395554841,1,9.529975068289787e-05,1,3,1,0.1564242541790009,1,0.5020692348480225,1,9.792540550231934,1
1778106287672737536,-0.02236678078770638,-0.05530602484941483,-0.9944738745689392,-0.0002294867153977975,-0.0005468130111694336,-0.009935352019965649,,,,,,,,,,,,,,,,,,,,
1778106287673797888,,,,,,,-0.0652494877576828,1,-0.04338507726788521,1,0.03915278241038322,1,0.01637253537774086,1,0.0003440715081524104,1,-0.0005125042516738176,1,3,1,0.156386524438858,1,0.5036681890487671,1,9.792458534240723,1
1778106287682580992,-0.02260981127619743,-0.05549441650509834,-0.9945750832557678,-0.0002295754093211144,-0.0005565849132835865,-0.00994593370705843,,,,,,,,,,,,,,,,,,,,
1778106287683825152,,,,,,,-0.06598545610904694,1,-0.05165784433484077,1,0.04292057454586029,1,0.01436204370111227,1,-0.0001800553582143039,1,-0.00119048310443759,1,3,1,0.1563767194747925,1,0.5051515102386475,1,9.79238224029541,1
1778106287692404736,-0.02267993986606598,-0.05651301145553589,-0.9941818714141846,-0.0002274631406180561,-0.0005754751618951559,-0.009937619790434837,,,,,,,,,,,,,,,,,,,,
1778106287694018816,,,,,,,-0.0690896064043045,1,-0.06821556389331818,1,0.04405197128653526,1,0.01334591489285231,1,-0.0001518731296528131,1,-0.001251588109880686,1,3,1,0.1564451605081558,1,0.5064383745193481,1,9.792314529418945,1
1778106287702580736,-0.02299698069691658,-0.05835851654410362,-0.99405837059021,-0.0002333807642571628,-0.0006037256098352373,-0.009939799085259438,,,,,,,,,,,,,,,,,,,,
1778106287704192256,,,,,,,-0.07166787981987,1,-0.07981676608324051,1,0.04687994718551636,1,0.009624481201171875,1,0.0008814295288175344,1,-0.0003738451050594449,1,3,1,0.1564324349164963,1,0.5078673958778381,1,9.792241096496582,1
1778106287712736768,-0.02326060272753239,-0.05969411134719849,-0.9937621355056763,-0.0002359711943427101,-0.0006122702616266906,-0.009933340363204479,,,,,,,,,,,,,,,,,,,,
1778106287714345472,,,,,,,-0.07073388993740082,1,-0.08122644573450089,1,0.04466080665588379,1,0.006489914376288652,1,-2.685555955395103e-06,1,0.0001432894787285477,1,3,1,0.156396210193634,1,0.5085031986236572,1,9.792208671569824,1
1778106287722873088,-0.02316320687532425,-0.05996249988675117,-0.9939820170402527,-0.000230763282161206,-0.0006036531995050609,-0.009941887110471725,,,,,,,,,,,,,,,,,,,,
1778106287724478464,,,,,,,-0.06750285625457764,1,-0.06984351575374603,1,0.03581804037094116,1,0.005395656917244196,1,0.0003371071070432663,1,0.0002190263185184449,1,3,1,0.1563649475574493,1,0.50904780626297,1,9.792181015014648,1
1778106287732989184,-0.02283175848424435,-0.05889635533094406,-0.994878888130188,-0.0002246590447612107,-0.0005779528873972595,-0.009958713315427303,,,,,,,,,,,,,,,,,,,,
1778106287734591744,,,,,,,-0.06654837727546692,1,-0.05007072910666466,1,0.03711001202464104,1,0.005499241407960653,1,-0.0001395597209921107,1,-0.0005351946456357837,1,3,1,0.1563491374254227,1,0.5096122026443481,1,9.79215145111084,1
1778106287743085056,-0.02273193001747131,-0.05695730447769165,-0.994743287563324,-0.0002260009641759098,-0.0005475237849168479,-0.009946856647729874,,,,,,,,,,,,,,,,,,,,
1778106287744684800,,,,,,,-0.06834959238767624,1,-0.03202149644494057,1,0.03783629462122917,1,0.005963034927845001,1,0.0005029529565945268,1,-0.001060839043930173,1,3,1,0.1562655419111252,1,0.5101836323738098,1,9.792122840881348,1
1778106287753161216,-0.02291171811521053,-0.05518479272723198,-0.9946657419204712,-0.0002310189593117684,-0.000531095894984901,-0.009945949539542198,,,,,,,,,,,,,,,,,,,,
1778106287763217408,-0.02275689318776131,-0.05445127189159393,-0.9948279857635498,-0.0002261578920297325,-0.0005347112892195582,-0.009949786588549614,,,,,,,,,,,,,,,,,,,,
1778106287773253376,-0.02272496186196804,-0.05510509014129639,-0.9951886534690857,-0.0002275817387271672,-0.0005570990033447742,-0.009955243207514286,,,,,,,,,,,,,,,,,,,,
1778106287783269632,-0.02229946665465832,-0.05639899149537086,-0.9952850341796875,-0.0002179998555220664,-0.0005785253015346825,-0.009954045526683331,,,,,,,,,,,,,,,,,,,,
1778106287788823100,,,,,,,-0.06688020378351212,1,-0.02422239631414413,1,0.03621457517147064,1,0.004703058395534754,1,-0.0002632655086927116,1,-0.001573280547745526,1,3,1,0.1562388390302658,1,0.5106655359268188,1,9.792098999023438,1
1778106287793267712,-0.02158167213201523,-0.05746359378099442,-0.9953465461730957,-0.0002078970574075356,-0.0005868223961442709,-0.009954574517905712,,,,,,,,,,,,,,,,,,,,
1778106287798807808,,,,,,,-0.06658636033535004,1,-0.03012798167765141,1,0.03265155106782913,1,0.002950550056993961,1,-0.0004959594225510955,1,-0.001963605172932148,1,3,1,0.1562659293413162,1,0.5109835863113403,1,9.792081832885742,1
1778106287803246080,-0.02099471539258957,-0.05762644857168198,-0.9949690103530884,-0.0002031178446486592,-0.0005792114534415305,-0.009944997727870941,,,,,,,,,,,,,,,,,,,,
1778106287808772864,,,,,,,-0.06239208951592445,1,-0.04243992641568184,1,0.03168650716543198,1,0.001910509658046067,1,-6.213120650500059e-05,1,-0.001624023541808128,1,3,1,0.1563143581151962,1,0.5111680030822754,1,9.792071342468262,1
1778106287813204736,-0.02004286646842957,-0.05667852237820625,-0.9950060248374939,-0.0001897694892250001,-0.0005575085524469614,-0.00995069183409214,,,,,,,,,,,,,,,,,,,,
1778106287818719744,,,,,,,-0.0553121380507946,1,-0.05260268971323967,1,0.03106836415827274,1,0.00132526142988354,1,-0.0007353284163400531,1,-0.001392847392708063,1,3,1,0.1564068049192429,1,0.5113009214401245,1,9.792062759399414,1
1778106287823143424,-0.01866374723613262,-0.05457805469632149,-0.9954699277877808,-0.0001710265350993723,-0.0005222547333687544,-0.009960629977285862,,,,,,,,,,,,,,,,,,,,
1778106287828647424,,,,,,,-0.04950250685214996,1,-0.0540388710796833,1,0.0347614549100399,1,-0.0009880808647722006,1,-0.0004850101249758154,1,-0.0008005104027688503,1,3,1,0.1564638763666153,1,0.511228621006012,1,9.792065620422363,1
1778106287833062656,-0.01784306950867176,-0.05259982123970985,-0.9946047067642212,-0.0001685107563389465,-0.0005016470095142722,-0.009937486611306667,,,,,,,,,,,,,,,,,,,,
1778106287838555136,,,,,,,-0.04013444110751152,1,-0.04472358152270317,1,0.0343962162733078,1,-0.00140273233409971,1,2.49836448347196e-05,1,-0.001035143039189279,1,3,1,0.1564543694257736,1,0.5110667943954468,1,9.792074203491211,1
1778106287842962176,-0.01719595864415169,-0.0514797680079937,-0.9936655163764954,-0.0001648712495807558,-0.0005012751207686961,-0.009925428777933121,,,,,,,,,,,,,,,,,,,,
1778106287848443136,,,,,,,-0.02657297067344189,1,-0.02414286136627197,1,0.02984724938869476,1,0.0001898984191939235,1,-0.001038010464981198,1,-0.001522280275821686,1,3,1,0.1565396338701248,1,0.5110725164413452,1,9.792072296142578,1
1778106287852841984,-0.01707414723932743,-0.05152155086398125,-0.9934793710708618,-0.0001695769024081528,-0.000514787039719522,-0.009931977838277817,,,,,,,,,,,,,,,,,,,,
1778106287858311680,,,,,,,-0.01847637258470058,1,-0.004694106057286263,1,0.03832914680242538,1,0.001476386561989784,1,-0.000773982610553503,1,-0.001410704222507775,1,3,1,0.1565857827663422,1,0.5112591981887817,1,9.792061805725098,1
1778106287862702336,-0.01690789125859737,-0.05313315987586975,-0.9936702847480774,-0.0001670659694354981,-0.0005484326393343508,-0.00993880070745945,,,,,,,,,,,,,,,,,,,,
1778106287868160768,,,,,,,-0.01210488192737103,1,0.006369806360453367,1,0.04753420874476433,1,0.0005850313464179635,1,7.813901174813509e-05,1,-0.001177226775325835,1,3,1,0.1565511971712112,1,0.5113309621810913,1,9.792058944702148,1
1778106287872543488,-0.01738128066062927,-0.05551986768841743,-0.9934233427047729,-0.0001787699147826061,-0.0005826242850162089,-0.009931894019246101,,,,,,,,,,,,,,,,,,,,
1778106287877990144,,,,,,,-0.01090608164668083,1,0.006013722158968449,1,0.04935736954212189,1,0.0004159832024015486,1,0.0005175343831069767,1,-0.001584864454343915,1,3,1,0.1565133035182953,1,0.5113469362258911,1,9.792058944702148,1
1778106287882546688,-0.01817495189607143,-0.05731632560491562,-0.993523895740509,-0.0001914515014505014,-0.0005945301963947713,-0.009935857728123665,,,,,,,,,,,,,,,,,,,,
1778106287887800320,,,,,,,-0.009310761466622353,1,-0.009754649363458157,1,0.04748371243476868,1,0.0004708496562670916,1,7.917152834124863e-05,1,-0.001011747866868973,1,3,1,0.1564526706933975,1,0.5113638639450073,1,9.792058944702148,1
1778106287892711424,-0.01879149302840233,-0.05815056711435318,-0.9941584467887878,-0.0001947313721757382,-0.0005920989206060767,-0.009947889484465122,,,,,,,,,,,,,,,,,,,,
1778106287897591552,,,,,,,-0.01397803705185652,1,-0.0331379659473896,1,0.04990509152412415,1,-0.001557077630423009,1,0.0001635889930184931,1,-0.001280782627873123,1,3,1,0.1564376801252365,1,0.51128751039505,1,9.792062759399414,1
1778106287902856704,-0.0187822375446558,-0.05719149485230446,-0.9952788352966309,-0.0001878921175375581,-0.0005624796031042933,-0.009964732453227043,,,,,,,,,,,,,,,,,,,,
1778106287907544576,,,,,,,-0.02179345116019249,1,-0.05085444822907448,1,0.04892385378479958,1,-0.003478623228147626,1,0.0006397232064045966,1,-0.0007586019928567111,1,3,1,0.1563764661550522,1,0.5109622478485107,1,9.792080879211426,1
1778106287912981760,-0.01907511986792088,-0.05510624498128891,-0.9960770606994629,-0.0001943834504345432,-0.000528165721334517,-0.009971744380891323,,,,,,,,,,,,,,,,,,,,
1778106287917659904,,,,,,,-0.02790625393390656,1,-0.05929114669561386,1,0.04271656647324562,1,-0.004881225060671568,1,0.001295072957873344,1,0.000196101886103861,1,3,1,0.1562441885471344,1,0.5104700326919556,1,9.792108535766602,1
1778106287923087360,-0.01937221921980381,-0.05291745439171791,-0.9954180121421814,-0.0001969986769836396,-0.0005041398690082133,-0.009946197271347046,,,,,,,,,,,,,,,,,,,,
1778106287927755008,,,,,,,-0.02791959047317505,1,-0.05028871074318886,1,0.0317513607442379,1,-0.006721773184835911,1,0.001066122320480645,1,0.0003736893413588405,1,3,1,0.1561067700386047,1,0.5098180770874023,1,9.792144775390625,1
1778106287933173248,-0.0192654337733984,-0.05165693908929825,-0.9949443936347961,-0.0001914835884235799,-0.0005016260547563434,-0.009943646378815174,,,,,,,,,,,,,,,,,,,,
1778106287937830656,,,,,,,-0.03073722682893276,1,-0.03022681549191475,1,0.02394296042621136,1,-0.006496455520391464,1,0.0001937006309162825,1,0.0008320327033288777,1,3,1,0.1565391421318054,1,0.5096095204353333,1,9.792148590087891,1
1778106287943239680,-0.01935161463916302,-0.05187911912798882,-0.9944923520088196,-0.0001951927843037993,-0.0005197784630581737,-0.009939467534422874,,,,,,,,,,,,,,,,,,,,
1778106287947886592,,,,,,,-0.03353961557149887,1,-0.009182942099869251,1,0.03042664378881454,1,-0.006479186005890369,1,-0.0003788137692026794,1,0.001471800962463021,1,3,1,0.1565923094749451,1,0.5090048313140869,1,9.792179107666016,1
1778106287953285888,-0.01948320306837559,-0.0534936934709549,-0.9940810799598694,-0.0001962791138794273,-0.0005536168464459479,-0.009935872629284859,,,,,,,,,,,,,,,,,,,,
1778106287957922816,,,,,,,-0.03244434297084808,1,0.002675453200936317,1,0.03509556502103806,1,-0.00610366091132164,1,0.0002524416195228696,1,0.0005378194618970156,1,3,1,0.15653096139431,1,0.5084220767021179,1,9.792210578918457,1
1778106287963311872,-0.01944823563098907,-0.05538124218583107,-0.9939579963684082,-0.0001936889457283542,-0.0005760742933489382,-0.00993786659091711,,,,,,,,,,,,,,,,,,,,
1778106287967939584,,,,,,,-0.03325338661670685,1,-2.89923045784235e-05,1,0.03955607488751411,1,-0.005023665260523558,1,-0.0001681479334365577,1,-3.195511453668587e-05,1,3,1,0.1565734893083572,1,0.5079109072685242,1,9.792236328125,1
1778106287973318400,-0.01926448754966259,-0.05652903765439987,-0.994454562664032,-0.0001910030114231631,-0.0005794665776193142,-0.009948510676622391,,,,,,,,,,,,,,,,,,,,
1778106287977936384,,,,,,,-0.0345299169421196,1,-0.01638832129538059,1,0.04361697658896446,1,-0.005705268122255802,1,9.776728984434158e-05,1,-0.0005519454134628177,1,3,1,0.1565463542938232,1,0.5073568820953369,1,9.792265892028809,1
1778106287983304960,-0.01811243034899235,-0.0559115968644619,-0.9952808618545532,-0.0001683111040620133,-0.0005540444981306791,-0.00996195524930954,,,,,,,,,,,,,,,,,,,,
1778106287987913216,,,,,,,-0.03417623043060303,1,-0.03543916717171669,1,0.04485028609633446,1,-0.006380944047123194,1,-0.0004381311882752925,1,0.0006411488866433501,1,3,1,0.1565795242786407,1,0.5067682862281799,1,9.792295455932617,1
1778106287993271808,-0.01714845560491085,-0.05450321733951569,-0.995976984500885,-0.0001604442513780668,-0.000529774057213217,-0.009968223981559277,,,,,,,,,,,,,,,,,,,,
1778106287997870592,,,,,,,-0.03237664327025414,1,-0.04730240255594254,1,0.04001184180378914,1,-0.007669684942811728,1,-0.0001161029867944308,1,0.0009109023376367986,1,3,1,0.1565473675727844,1,0.5060287714004517,1,9.79233455657959,1
1778106288003218944,-0.01601812429726124,-0.05311291292309761,-0.9951532483100891,-0.0001468237314838916,-0.0005149273201823235,-0.009943724609911442,,,,,,,,,,,,,,,,,,,,
1778106288007808000,,,,,,,-0.02108065783977509,1,-0.04194475710391998,1,0.03194490820169449,1,-0.008109996095299721,1,0.0007151184836402535,1,0.001435894402675331,1,3,1,0.1565132141113281,1,0.5052090883255005,1,9.792377471923828,1
1778106288013146624,-0.0145718390122056,-0.05198558419942856,-0.9943966865539551,-0.0001289708307012916,-0.0005064403521828353,-0.009934714995324612,,,,,,,,,,,,,,,,,,,,
1778106288017726208,,,,,,,-0.011630954220891,1,-0.02886409126222134,1,0.02515551447868347,1,-0.006924535147845745,1,-0.001338863512501121,1,0.001019439310766757,1,3,1,0.1565886437892914,1,0.5044920444488525,1,9.792412757873535,1
1778106288023054592,-0.01317248400300741,-0.05158945545554161,-0.9940063953399658,-0.0001151926262537017,-0.0005113314255140722,-0.00993580836802721,,,,,,,,,,,,,,,,,,,,
1778106288027624448,,,,,,,-0.0004705045139417052,1,-0.01593171060085297,1,0.03326927870512009,1,-0.007147396914660931,1,-0.001411522971466184,1,-0.0001777723227860406,1,3,1,0.1567607372999191,1,0.5038144588470459,1,9.792445182800293,1
1778106288032942592,-0.01207402441650629,-0.05197891220450401,-0.9931391477584839,-0.0001080212241504341,-0.0005233220290392637,-0.009921558201313019,,,,,,,,,,,,,,,,,,,,
1778106288037503488,,,,,,,0.01380841247737408,1,-0.005553935188800097,1,0.04072261601686478,1,-0.005931379273533821,1,-0.000972081848885864,1,-0.001440176740288734,1,3,1,0.1568550914525986,1,0.503214418888092,1,9.792474746704102,1
1778106288042811392,-0.01152935810387135,-0.05238544195890427,-0.9926049113273621,-0.000108319021819625,-0.0005286434316076338,-0.009919794276356697,,,,,,,,,,,,,,,,,,,,
1778106288047362816,,,,,,,0.02762685902416706,1,-0.002288717543706298,1,0.0445808507502079,1,-0.005217417608946562,1,-0.0014979497063905,1,-0.0008985369349829853,1,3,1,0.1569756418466568,1,0.5026894807815552,1,9.792499542236328,1
1778106288052660480,-0.01141240913420916,-0.05284931138157845,-0.9930026531219482,-0.0001134758640546352,-0.0005342360236681998,-0.009933928027749062,,,,,,,,,,,,,,,,,,,,
1778106288057202176,,,,,,,0.03851103782653809,1,-0.006679782643914223,1,0.05311260372400284,1,-0.004795030690729618,1,-0.001070213504135609,1,-0.001351163838990033,1,3,1,0.1570883244276047,1,0.5021882653236389,1,9.792523384094238,1
1778106288062490112,-0.0108184739947319,-0.05328314006328583,-0.994391143321991,-0.0001012469510897063,-0.0005386121338233352,-0.009959515184164047,,,,,,,,,,,,,,,,,,,,
1778106288067022592,,,,,,,0.04394159838557243,1,-0.01116982661187649,1,0.05837578698992729,1,-0.004707160405814648,1,-0.0003343219286762178,1,-0.0008690473041497171,1,3,1,0.1571212559938431,1,0.5017713308334351,1,9.792544364929199,1
1778106288072485120,-0.01072611566632986,-0.05367540195584297,-0.9953282475471497,-0.000105590392195154,-0.0005409191944636405,-0.009965270757675171,,,,,,,,,,,,,,,,,,,,
1778106288076823552,,,,,,,0.04514128714799881,1,-0.01625334285199642,1,0.05450199916958809,1,-0.006216919980943203,1,-2.605596455396153e-05,1,-0.0002856341889128089,1,3,1,0.1571227163076401,1,0.5011364817619324,1,9.792576789855957,1
1778106288082644736,-0.0109736081212759,-0.05403418093919754,-0.9953672885894775,-0.0001122554094763473,-0.0005453580524772406,-0.009954184293746948,,,,,,,,,,,,,,,,,,,,
1778106288086604544,,,,,,,0.05097072944045067,1,-0.02108669281005859,1,0.04091543704271317,1,-0.006364834494888783,1,0.0005060241091996431,1,-0.0003389500197954476,1,3,1,0.1570445895195007,1,0.5004997253417969,1,9.792610168457031,1
1778106288092784896,-0.01107168197631836,-0.05428855866193771,-0.9951124787330627,-0.0001117648571380414,-0.00054589519277215,-0.009948275052011013,,,,,,,,,,,,,,,,,,,,
1778106288096735744,,,,,,,0.0518910251557827,1,-0.02548810094594955,1,0.03175429254770279,1,-0.004435180686414242,1,-0.0004012184508610517,1,-0.001025377889163792,1,3,1,0.1571144014596939,1,0.5000608563423157,1,9.792632102966309,1
1778106288102904576,-0.01078565139323473,-0.05388246849179268,-0.9951854348182678,-0.0001049929487635382,-0.000534934108145535,-0.009953205473721027,,,,,,,,,,,,,,,,,,,,
1778106288106847488,,,,,,,0.04947808012366295,1,-0.02954012900590897,1,0.03139801695942879,1,-0.006562625523656607,1,-0.0003772268537431955,1,-0.001268689054995775,1,3,1,0.1571178585290909,1,0.499454140663147,1,9.792662620544434,1
1778106288113004544,-0.01039719395339489,-0.05304249376058578,-0.9951372742652893,-9.967303049052134e-05,-0.0005222943145781755,-0.009951595216989517,,,,,,,,,,,,,,,,,,,,
1778106288116939008,,,,,,,0.04853696376085281,1,-0.03263584151864052,1,0.03392697125673294,1,-0.00704433536157012,1,0.0002151228545699269,1,-0.001080668531358242,1,3,1,0.157129630446434,1,0.4987615048885345,1,9.792697906494141,1
1778106288123084288,-0.01032784208655357,-0.0520978644490242,-0.9946668744087219,-0.0001020706404233351,-0.000510774552822113,-0.00994202122092247,,,,,,,,,,,,,,,,,,,,
1778106288127010816,,,,,,,0.0513494648039341,1,-0.02932204492390156,1,0.03324566408991814,1,-0.008370818570256233,1,-0.000390689296182245,1,-0.0002871772740036249,1,3,1,0.1571452021598816,1,0.4979592859745026,1,9.792738914489746,1
1778106288133144832,-0.01017834804952145,-0.05107166990637779,-0.9937015175819397,-0.0001002686694846489,-0.0004989408189430833,-0.009925920516252518,,,,,,,,,,,,,,,,,,,,
1778106288137062656,,,,,,,0.05515600740909576,1,-0.02173804864287376,1,0.03375111147761345,1,-0.006290563847869635,1,-0.0007180964457802474,1,-0.0007622780976817012,1,3,1,0.1571054309606552,1,0.4974837303161621,1,9.792763710021973,1
1778106288143185920,-0.01016259286552668,-0.05045072734355927,-0.9935294389724731,-0.000101288387668319,-0.000497029279358685,-0.00993259996175766,,,,,,,,,,,,,,,,,,,,
1778106288147094272,,,,,,,0.05585924535989761,1,-0.01307285856455564,1,0.03839424625039101,1,-0.006555079016834497,1,-0.000798961496911943,1,-0.001077674445696175,1,3,1,0.1571972072124481,1,0.4968643188476562,1,9.792793273925781,1
1778106288153207040,-0.01026072539389133,-0.05070255324244499,-0.9940537214279175,-0.0001040226634358987,-0.0005090513732284307,-0.009946663863956928,,,,,,,,,,,,,,,,,,,,
1778106288157107200,,,,,,,0.05738910660147667,1,-0.003610370680689812,1,0.04789106175303459,1,-0.005695696920156479,1,-0.001202003564685583,1,-0.0009614236769266427,1,3,1,0.1573285758495331,1,0.4962983131408691,1,9.792819976806641,1
1778106288163208448,-0.01045872271060944,-0.05137970671057701,-0.9945125579833984,-0.0001072159066097811,-0.0005216312129050493,-0.009950617328286171,,,,,,,,,,,,,,,,,,,,
1778106288167100416,,,,,,,0.05764241144061089,1,0.001903747790493071,1,0.0496065765619278,1,-0.00563011085614562,1,-0.0008279017638415098,1,-0.00187305046711117,1,3,1,0.1574453711509705,1,0.4957521557807922,1,9.792845726013184,1
1778106288173189888,-0.01075905468314886,-0.05211411789059639,-0.9950283169746399,-0.0001109461663872935,-0.0005296080489642918,-0.009956385008990765,,,,,,,,,,,,,,,,,,,,
1778106288177073664,,,,,,,0.05675598233938217,1,-0.001093820668756962,1,0.04449090734124184,1,-0.004219186957925558,1,-0.0005030984757468104,1,-0.001616698573343456,1,3,1,0.1574890613555908,1,0.4953354597091675,1,9.792865753173828,1
1778106288183151360,-0.01105579175055027,-0.05295634642243385,-0.9950122833251953,-0.0001139218948082998,-0.0005392777966335416,-0.009951517917215824,,,,,,,,,,,,,,,,,,,,
1778106288187027456,,,,,,,0.05484867095947266,1,-0.008230526931583881,1,0.04001519456505775,1,-0.005269817542284727,1,0.000690056593157351,1,-0.001502009690739214,1,3,1,0.1574244201183319,1,0.4948304891586304,1,9.792892456054688,1
1778106288193093632,-0.01116395648568869,-0.05349669605493546,-0.9943903088569641,-0.0001130493837990798,-0.0005423690308816731,-0.009936600923538208,,,,,,,,,,,,,,,,,,,,
1778106288196961280,,,,,,,0.05191345140337944,1,-0.01594450138509274,1,0.03498301655054092,1,-0.005221399012953043,1,-6.250398291740566e-05,1,-0.001019385643303394,1,3,1,0.1574378609657288,1,0.4943066239356995,1,9.792919158935547,1
1778106288203016192,-0.01094548404216766,-0.05348855257034302,-0.994428813457489,-0.0001075728359865025,-0.0005362835363484919,-0.009944144636392593,,,,,,,,,,,,,,,,,,,,
1778106288206875648,,,,,,,0.04901834949851036,1,-0.02472082898020744,1,0.03516599908471107,1,-0.006443834863603115,1,-0.0003515465068630874,1,-0.0007612413610331714,1,3,1,0.1574703752994537,1,0.4937321245670319,1,9.792946815490723,1
1778106288212919040,-0.01040314137935638,-0.05281006172299385,-0.9947971105575562,-9.831787610892206e-05,-0.0005207476206123829,-0.009952106513082981,,,,,,,,,,,,,,,,,,,,
1778106288216770304,,,,,,,0.04798509180545807,1,-0.03056884743273258,1,0.04129357263445854,1,-0.006837585940957069,1,-0.0007762628374621272,1,-0.0003307246952317655,1,3,1,0.1575292944908142,1,0.4931341111660004,1,9.792976379394531,1
1778106288222802688,-0.01004607044160366,-0.05129669234156609,-0.9948839545249939,-9.634756133891642e-05,-0.0004959445213899016,-0.00995067972689867,,,,,,,,,,,,,,,,,,,,
1778106288226645760,,,,,,,0.05017188936471939,1,-0.03111205622553825,1,0.04094650596380234,1,-0.007631511427462101,1,-0.0004620153922587633,1,-0.0002348167181480676,1,3,1,0.1575819551944733,1,0.492387056350708,1,9.793013572692871,1
1778106288232666624,-0.009905677288770676,-0.04962710291147232,-0.9942529201507568,-9.812475764192641e-05,-0.0004771546518895775,-0.009935589507222176,,,,,,,,,,,,,,,,,,,,
1778106288236501504,,,,,,,0.05554183572530746,1,-0.0251182559877634,1,0.0373668372631073,1,-0.006778239272534847,1,-0.001089713186956942,1,-0.001084787887521088,1,3,1,0.1576646864414215,1,0.4917217195034027,1,9.793045043945312,1
1778106288242510848,-0.009872672148048878,-0.0483541265130043,-0.9938569664955139,-9.830787166720256e-05,-0.0004689112829510123,-0.009934310801327229,,,,,,,,,,,,,,,,,,,,
1778106288246338048,,,,,,,0.05912564694881439,1,-0.01093081571161747,1,0.03654618188738823,1,-0.006098355166614056,1,-0.00032580312108621,1,-0.0008998348494060338,1,3,1,0.1577504873275757,1,0.4911041557788849,1,9.793074607849121,1
1778106288252335872,-0.01039205398410559,-0.04848785325884819,-0.9936012029647827,-0.0001099696673918515,-0.0004858505271840841,-0.009932570159435272,,,,,,,,,,,,,,,,,,,,
1778106288256154880,,,,,,,0.0605567991733551,1,0.004828292410820723,1,0.04276372492313385,1,-0.005445828661322594,1,0.0001555800554342568,1,-0.0007165808929130435,1,3,1,0.1577538847923279,1,0.4905609786510468,1,9.793102264404297,1
1778106288262513408,-0.01100169960409403,-0.04956365376710892,-0.9939441680908203,-0.0001170948162325658,-0.0005067505408078432,-0.009942160919308662,,,,,,,,,,,,,,,,,,,,
1778106288265952512,,,,,,,0.06089962646365166,1,0.01676352880895138,1,0.04667408019304276,1,-0.004698514472693205,1,0.0002346049877814949,1,5.867631989531219e-05,1,3,1,0.1577297747135162,1,0.4901195764541626,1,9.793124198913574,1
1778106288272670976,-0.01183416787534952,-0.05185504257678986,-0.9943854808807373,-0.0001275120739592239,-0.0005437802756205201,-0.009948793798685074,,,,,,,,,,,,,,,,,,,,
1778106288275916800,,,,,,,0.05581361427903175,1,0.01493671908974648,1,0.04920849204063416,1,-0.005222296807914972,1,0.0001164041314041242,1,0.0001772526011336595,1,3,1,0.1577274650335312,1,0.4896197319030762,1,9.793149948120117,1
1778106288282808320,-0.01264570094645023,-0.05385246127843857,-0.9948035478591919,-0.0001359722518827766,-0.0005622623721137643,-0.009952019900083542,,,,,,,,,,,,,,,,,,,,
1778106288286047488,,,,,,,0.0498274452984333,1,0.003897413611412048,1,0.04586991667747498,1,-0.003883372992277145,1,0.0001363719347864389,1,-0.0003794122312683612,1,3,1,0.1577043235301971,1,0.4892226755619049,1,9.793169975280762,1
1778106288292925952,-0.01334107480943203,-0.05472142994403839,-0.9953941106796265,-0.0001416145678376779,-0.0005591688095591962,-0.009960860945284367,,,,,,,,,,,,,,,,,,,,
1778106288296157952,,,,,,,0.04167642444372177,1,-0.01901222206652164,1,0.04156407713890076,1,-0.004367980640381575,1,0.0001190378388855606,1,-0.0006485057529062033,1,3,1,0.1577408313751221,1,0.4888164103031158,1,9.79318904876709,1
1778106288303023616,-0.01374034769833088,-0.05382955819368362,-0.9951938390731812,-0.000141583863296546,-0.0005290867993608117,-0.009950657375156879,,,,,,,,,,,,,,,,,,,,
1778106288306248448,,,,,,,0.03368304669857025,1,-0.03907011076807976,1,0.03748840093612671,1,-0.00601934315636754,1,0.0009460041765123606,1,-0.001011368120089173,1,3,1,0.1576140373945236,1,0.4882421791553497,1,9.793220520019531,1
1778106288313101312,-0.01421814784407616,-0.05175432190299034,-0.9946362972259521,-0.0001484433159930632,-0.0004943920648656785,-0.00994027778506279,,,,,,,,,,,,,,,,,,,,
1778106288316319488,,,,,,,0.0268220566213131,1,-0.04810759797692299,1,0.03172354772686958,1,-0.005757435690611601,1,5.999474524287507e-05,1,6.495667912531644e-05,1,3,1,0.157605841755867,1,0.4876875281333923,1,9.793248176574707,1
1778106288323159296,-0.01405640132725239,-0.04955172166228294,-0.9939935207366943,-0.0001390423567499965,-0.0004710286157205701,-0.009931753389537334,,,,,,,,,,,,,,,,,,,,
1778106288326370560,,,,,,,0.02288864925503731,1,-0.03993336483836174,1,0.03371511027216911,1,-0.00691278837621212,1,-0.0002870417665690184,1,0.001472075935453176,1,3,1,0.1576293259859085,1,0.4869933128356934,1,9.793282508850098,1
1778106288333197312,-0.01384724956005812,-0.04795436933636665,-0.9941986799240112,-0.0001358866575174034,-0.0004605767608154565,-0.009943485260009766,,,,,,,,,,,,,,,,,,,,
1778106288336401664,,,,,,,0.01807592250406742,1,-0.02015898376703262,1,0.03921446204185486,1,-0.007169144693762064,1,-0.0008895322680473328,1,0.001413506222888827,1,3,1,0.1572285145521164,1,0.486465722322464,1,9.793314933776855,1
1778106288343215360,-0.01380130741745234,-0.0478849783539772,-0.9943267107009888,-0.0001368762023048475,-0.0004764827608596534,-0.009944519959390163,,,,,,,,,,,,,,,,,,,,
1778106288346413056,,,,,,,0.01954489946365356,1,0.0008582265581935644,1,0.0455484539270401,1,-0.005999668035656214,1,-0.0004504451353568584,1,0.0008229658124037087,1,3,1,0.1572700589895248,1,0.4858700931072235,1,9.793343544006348,1
1778106288353213696,-0.01367262378334999,-0.04870489984750748,-0.9942188262939453,-0.0001349484082311392,-0.0004962144303135574,-0.009941397234797478,,,,,,,,,,,,,,,,,,,,
1778106288356404480,,,,,,,0.02154469303786755,1,0.01596838422119617,1,0.04356498271226883,1,-0.003414684673771262,1,-0.0003121400368399918,1,-0.0004675220989156514,1,3,1,0.1572894603013992,1,0.4854548573493958,1,9.793363571166992,1
1778106288363192064,-0.01362869795411825,-0.04984741657972336,-0.9942269921302795,-0.0001355288404738531,-0.0005116363172419369,-0.009941913187503815,,,,,,,,,,,,,,,,,,,,
1778106288366376192,,,,,,,0.02198823168873787,1,0.01623472012579441,1,0.04233016446232796,1,-0.001388732460327446,1,-0.0007149258744902909,1,-0.001238031196407974,1,3,1,0.1573495864868164,1,0.4852824211120605,1,9.793371200561523,1
1778106288373150720,-0.01367568783462048,-0.05043362826108932,-0.9940264821052551,-0.0001367815712001175,-0.0005114555242471397,-0.009939311072230339,,,,,,,,,,,,,,,,,,,,
1778106288376328192,,,,,,,0.0232672430574894,1,0.007914750836789608,1,0.04340124130249023,1,-0.001517026335932314,1,4.153362533543259e-05,1,-0.001121764653362334,1,3,1,0.1573628485202789,1,0.4851563572883606,1,9.793377876281738,1
1778106288383089664,-0.0139042753726244,-0.05057645961642265,-0.9934651255607605,-0.0001421131892129779,-0.0005073082866147161,-0.00992873776704073,,,,,,,,,,,,,,,,,,,,
1778106288386260224,,,,,,,0.02369916811585426,1,-0.003473219927400351,1,0.04333069175481796,1,-0.0009533335105516016,1,0.0003773137577809393,1,0.0003514570998959243,1,3,1,0.1573394238948822,1,0.4851082265377045,1,9.793380737304688,1
1778106288393009408,-0.01364326756447554,-0.05072981864213943,-0.9936515688896179,-0.0001336769491899759,-0.0005091953789815307,-0.009938438422977924,,,,,,,,,,,,,,,,,,,,
1778106288396173056,,,,,,,0.02324161119759083,1,-0.009363212622702122,1,0.04530440643429756,1,-0.001231100410223007,1,-0.0002545243769418448,1,0.001479755504988134,1,3,1,0.1573753654956818,1,0.4850017428398132,1,9.79338550567627,1
1778106288402909184,-0.01333236135542393,-0.0509849525988102,-0.9937244653701782,-0.000129022664623335,-0.0005126675241626799,-0.009938455186784267,,,,,,,,,,,,,,,,,,,,
1778106288406066176,,,,,,,0.02101019956171513,1,-0.01088830083608627,1,0.05081498995423317,1,-0.0004818846646230668,1,-0.0001350436359643936,1,0.0007096863118931651,1,3,1,0.1573829501867294,1,0.4849341809749603,1,9.793388366699219,1
1778106288412789760,-0.01315552741289139,-0.05119704827666283,-0.9945187568664551,-0.0001291283406317234,-0.000514574465341866,-0.009953698143362999,,,,,,,,,,,,,,,,,,,,
1778106288415939840,,,,,,,0.02358976006507874,1,-0.01249581854790449,1,0.04899079352617264,1,-0.001188629074022174,1,-0.0009001800790429115,1,0.0008646823698654771,1,3,1,0.1574479788541794,1,0.4848216474056244,1,9.793393135070801,1
1778106288422650624,-0.01266482751816511,-0.05075420811772346,-0.9949060678482056,-0.0001205870503326878,-0.000502824317663908,-0.009954099543392658,,,,,,,,,,,,,,,,,,,,
1778106288425794048,,,,,,,0.02669936791062355,1,-0.01509950123727322,1,0.04828039184212685,1,-0.0002112351648975164,1,-0.0008174116373993456,1,-0.0007005360093899071,1,3,1,0.1575464159250259,1,0.4847618639469147,1,9.793394088745117,1
1778106288432491520,-0.01260684709995985,-0.04945383965969086,-0.9946547150611877,-0.0001240880374098197,-0.0004796133725903928,-0.009944487363100052,,,,,,,,,,,,,,,,,,,,
1778106288435628800,,,,,,,0.02849473431706429,1,-0.01724360883235931,1,0.04049296304583549,1,0.0002869366726372391,1,0.000216662505408749,1,-6.997281889198348e-05,1,3,1,0.1575648337602615,1,0.4847616255283356,1,9.793394088745117,1
1778106288442313472,-0.01322692818939686,-0.04808600246906281,-0.9935911893844604,-0.0001391592959407717,-0.0004644924774765968,-0.009924464859068394,,,,,,,,,,,,,,,,,,,,
1778106288445444096,,,,,,,0.03332266211509705,1,-0.01291825622320175,1,0.0366956889629364,1,0.0006741489050909877,1,0.0002062363346340135,1,0.0009412352810613811,1,3,1,0.1575334519147873,1,0.4848179221153259,1,9.793391227722168,1
1778106288452488448,-0.01371097099035978,-0.04686891287565231,-0.9929523468017578,-0.0001432814024155959,-0.0004544494731817394,-0.009921896271407604,,,,,,,,,,,,,,,,,,,,
1778106288455239680,,,,,,,0.03390570357441902,1,-0.0001159758539870381,1,0.03915821760892868,1,0.00180442351847887,1,-0.0001180389081127942,1,0.001829937915317714,1,3,1,0.1575597822666168,1,0.4849944412708282,1,9.79338264465332,1
1778106288462643456,-0.01400446612387896,-0.04682176932692528,-0.9939268827438354,-0.0001439476473024115,-0.0004659288097172976,-0.009950168430805206,,,,,,,,,,,,,,,,,,,,
1778106288465202432,,,,,,,0.02783980593085289,1,0.01339046377688646,1,0.04958301782608032,1,0.001794181880541146,1,-5.744249210692942e-05,1,0.002256120089441538,1,3,1,0.1575720608234406,1,0.4851347804069519,1,9.793375015258789,1
1778106288472777984,-0.01483494322746992,-0.04845436662435532,-0.9947943687438965,-0.000157647329615429,-0.0005019805394113064,-0.009958082810044289,,,,,,,,,,,,,,,,,,,,
1778106288475331584,,,,,,,0.02306963317096233,1,0.02547223679721355,1,0.05584103241562843,1,0.003127402160316706,1,0.001413057325407863,1,0.002423974452540278,1,3,1,0.1574427038431168,1,0.4853993356227875,1,9.793364524841309,1
1778106288482893056,-0.01585978083312511,-0.05091943219304085,-0.9946048855781555,-0.0001699072599876672,-0.000537180807441473,-0.009944606572389603,,,,,,,,,,,,,,,,,,,,
1778106288485441024,,,,,,,0.0201119352132082,1,0.02616844512522221,1,0.04627399891614914,1,0.004235088359564543,1,0.001922113122418523,1,0.001618081936612725,1,3,1,0.1572823524475098,1,0.4857733547687531,1,9.79334831237793,1
1778106288492987648,-0.01655424758791924,-0.05274796113371849,-0.9949921369552612,-0.0001740961452014744,-0.0005491290939971805,-0.00995453167706728,,,,,,,,,,,,,,,,,,,,
1778106288495530240,,,,,,,0.011879937723279,1,0.01050505042076111,1,0.03775130584836006,1,0.00509178452193737,1,3.00969259114936e-05,1,0.0007021091878414154,1,3,1,0.1572619676589966,1,0.4862966537475586,1,9.793322563171387,1
1778106288503062784,-0.01702356152236462,-0.05306719243526459,-0.9949657917022705,-0.0001753883698256686,-0.000536602979991585,-0.009949075989425182,,,,,,,,,,,,,,,,,,,,
1778106288505599744,,,,,,,0.001784270745702088,1,-0.01323406770825386,1,0.03958834707736969,1,0.005920357070863247,1,0.0002537425316404551,1,0.000626833934802562,1,3,1,0.1572500318288803,1,0.4868675172328949,1,9.793294906616211,1
1778106288513118720,-0.01723822578787804,-0.05143909156322479,-0.9951367974281311,-0.0001750771043589339,-0.0004970298032276332,-0.009953701868653297,,,,,,,,,,,,,,,,,,,,
1778106288515649280,,,,,,,-0.005060327704995871,1,-0.03065191395580769,1,0.03576627001166344,1,0.005858307238668203,1,0.0002986546896863729,1,0.0009669073042459786,1,3,1,0.1572301685810089,1,0.4874705076217651,1,9.793264389038086,1
1778106288523154688,-0.01781732402741909,-0.04931964352726936,-0.9943498373031616,-0.0001843525387812406,-0.0004681448335759342,-0.009935691021382809,,,,,,,,,,,,,,,,,,,,
1778106288525679104,,,,,,,-0.009715277701616287,1,-0.03327210247516632,1,0.03599957004189491,1,0.004553280305117369,1,0.001035295892506838,1,0.002231773221865296,1,3,1,0.1571262180805206,1,0.4879209995269775,1,9.793244361877441,1
1778106288533170944,-0.01883304119110107,-0.04823711514472961,-0.9931618571281433,-0.0002007298899115995,-0.0004685384628828615,-0.009918174706399441,,,,,,,,,,,,,,,,,,,,
1778106288535689728,,,,,,,-0.01194421481341124,1,-0.01681259647011757,1,0.03430044651031494,1,0.005115813110023737,1,-7.268486660905182e-05,1,0.002700066892430186,1,3,1,0.1569040715694427,1,0.4884349405765533,1,9.793222427368164,1
1778106288543167232,-0.01898826286196709,-0.04842744022607803,-0.9931609630584717,-0.0001923727686516941,-0.0004846593656111509,-0.009929859079420567,,,,,,,,,,,,,,,,,,,,
1778106288545680640,,,,,,,-0.01769143715500832,1,0.004565509036183357,1,0.0419885627925396,1,0.008189217187464237,1,-0.0005279014585539699,1,0.002468532184138894,1,3,1,0.156981885433197,1,0.4892629981040955,1,9.793179512023926,1
1778106288553144064,-0.01922543160617352,-0.0502210333943367,-0.99446040391922,-0.0001955548650585115,-0.0005213834811002016,-0.00995906163007021,,,,,,,,,,,,,,,,,,,,
1778106288555651840,,,,,,,-0.02768369391560555,1,0.01589789614081383,1,0.05360325053334236,1,0.008329280652105808,1,0.0002917082165367901,1,0.002141839126124978,1,3,1,0.1569545567035675,1,0.490121990442276,1,9.793136596679688,1
1778106288563100928,-0.01970922946929932,-0.05293002724647522,-0.9945674538612366,-0.0002024569694185629,-0.0005587629275396466,-0.009949089959263802,,,,,,,,,,,,,,,,,,,,
1778106288565603328,,,,,,,-0.02928241156041622,1,0.01479966379702091,1,0.05357472226023674,1,0.007857962511479855,1,0.002024054294452071,1,0.0005068937898613513,1,3,1,0.1567492783069611,1,0.4909326434135437,1,9.793099403381348,1
1778106288573038080,-0.02047440409660339,-0.05492038279771805,-0.9942896962165833,-0.0002129202912328765,-0.0005723331705667078,-0.009939339943230152,,,,,,,,,,,,,,,,,,,,
1778106288575535360,,,,,,,-0.03170469403266907,1,-0.001980145694687963,1,0.0407930500805378,1,0.0109812393784523,1,7.401610491797328e-05,1,-0.0003621705691330135,1,3,1,0.1567223072052002,1,0.491926521062851,1,9.793049812316895,1
1778106288582955776,-0.02107854187488556,-0.05519990622997284,-0.9939689040184021,-0.0002183564065489918,-0.0005560109857469797,-0.009936416521668434,,,,,,,,,,,,,,,,,,,,
1778106288585447424,,,,,,,-0.03651636838912964,1,-0.02757253497838974,1,0.0396961010992527,1,0.01201791688799858,1,-0.0004184633144177496,1,-0.0009167176904156804,1,3,1,0.1567014157772064,1,0.4931291043758392,1,9.792989730834961,1
1778106288592854016,-0.02117261290550232,-0.05425756052136421,-0.9941005110740662,-0.000213355160667561,-0.0005322772776708007,-0.009941720403730869,,,,,,,,,,,,,,,,,,,,
1778106288595340032,,,,,,,-0.04405251517891884,1,-0.04606422781944275,1,0.04236793145537376,1,0.009676316753029823,1,0.0004770449013449252,1,-9.264310938306153e-05,1,3,1,0.1566742658615112,1,0.4941180944442749,1,9.792940139770508,1
1778106288602732800,-0.02128932252526283,-0.05313259363174438,-0.9943898320198059,-0.0002138343988917768,-0.0005173611571080983,-0.009947027079761028,,,,,,,,,,,,,,,,,,,,
1778106288605213184,,,,,,,-0.05002930015325546,1,-0.04787560924887657,1,0.04546823352575302,1,0.008242464624345303,1,0.001116428524255753,1,0.001049611833877861,1,3,1,0.1565739959478378,1,0.4948752820491791,1,9.792903900146484,1
1778106288612592128,-0.02144142240285873,-0.05256067961454391,-0.9944890141487122,-0.0002162305754609406,-0.0005178434657864273,-0.00994644220918417,,,,,,,,,,,,,,,,,,,,
1778106288615066880,,,,,,,-0.05101770907640457,1,-0.0377691276371479,1,0.04413481056690216,1,0.00812812801450491,1,0.0004440843476913869,1,0.00109580485150218,1,3,1,0.156522125005722,1,0.4956627786159515,1,9.792864799499512,1
1778106288622431744,-0.02180972881615162,-0.05275550484657288,-0.9945308566093445,-0.0002225313219241798,-0.00052833795780316,-0.00994535069912672,,,,,,,,,,,,,,,,,,,,
1778106288624901376,,,,,,,-0.05221249163150787,1,-0.02591533027589321,1,0.04125645756721497,1,0.007795386947691441,1,-0.0002273176796734333,1,0.0003117086307611316,1,3,1,0.1565171629190445,1,0.4964260756969452,1,9.792826652526855,1
1778106288632431872,-0.02194161340594292,-0.05364040285348892,-0.9949960112571716,-0.00022073597938288,-0.0005460801185108721,-0.009955774061381817,,,,,,,,,,,,,,,,,,,,
1778106288634716160,,,,,,,-0.05373344197869301,1,-0.01948552951216698,1,0.04024284705519676,1,0.008997933007776737,1,0.0001499685749877244,1,-0.001201164210215211,1,3,1,0.1564930230379105,1,0.4972941279411316,1,9.792782783508301,1
1778106288642592000,-0.0219219084829092,-0.05435357987880707,-0.99495530128479,-0.0002189374790759757,-0.0005517746903933585,-0.009949050843715668,,,,,,,,,,,,,,,,,,,,
1778106288644511488,,,,,,,-0.05739156156778336,1,-0.02054943889379501,1,0.03978994116187096,1,0.008077059872448444,1,0.0002871837059501559,1,-0.001756222336553037,1,3,1,0.1564199477434158,1,0.4981290102005005,1,9.792741775512695,1
1778106288652732416,-0.02213202230632305,-0.0548335425555706,-0.9943997859954834,-0.0002235846623079851,-0.0005540512502193451,-0.009937849827110767,,,,,,,,,,,,,,,,,,,,
1778106288654467584,,,,,,,-0.05871598422527313,1,-0.02842815965414047,1,0.03518880903720856,1,0.007210263516753912,1,0.0006127273663878441,1,-0.001309181330725551,1,3,1,0.1563926339149475,1,0.4988405406475067,1,9.792705535888672,1
1778106288662852864,-0.02206624299287796,-0.05465780198574066,-0.994378924369812,-0.0002212221152149141,-0.0005446181748993695,-0.009943197481334209,,,,,,,,,,,,,,,,,,,,
1778106288664583680,,,,,,,-0.05856065824627876,1,-0.0346723310649395,1,0.03555085882544518,1,0.006960750091820955,1,-9.66314401011914e-05,1,-0.0009678371716290712,1,3,1,0.1563746631145477,1,0.4995217025279999,1,9.792671203613281,1
1778106288672953088,-0.02156246453523636,-0.0547003448009491,-0.9944665431976318,-0.0002099927951348945,-0.0005471850745379925,-0.009944941848516464,,,,,,,,,,,,,,,,,,,,
1778106288674680064,,,,,,,-0.0606309249997139,1,-0.03865239024162292,1,0.04096178710460663,1,0.006911041680723429,1,-0.0004378327284939587,1,-0.0007711033103987575,1,3,1,0.1564139574766159,1,0.5002186298370361,1,9.792634963989258,1
1778106288683033856,-0.02090389095246792,-0.05529719218611717,-0.9948863983154297,-0.0002014511555898935,-0.0005595291731879115,-0.00995442271232605,,,,,,,,,,,,,,,,,,,,
1778106288693094400,-0.01994399167597294,-0.05594384670257568,-0.9957437515258789,-0.0001886259269667789,-0.0005666903452947736,-0.009965808130800724,,,,,,,,,,,,,,,,,,,,
1778106288703135232,-0.0185566358268261,-0.05642994493246078,-0.9961788058280945,-0.0001694582169875503,-0.0005702509661205113,-0.009967358782887459,,,,,,,,,,,,,,,,,,,,
1778106288713156096,-0.01721098087728024,-0.05629044398665428,-0.9956673383712769,-0.0001565788988955319,-0.0005618531722575426,-0.009952926076948643,,,,,,,,,,,,,,,,,,,,
1778106288720664000,,,,,,,-0.05999400839209557,1,-0.03626096993684769,1,0.04113286361098289,1,0.005144502967596054,1,9.381528798257932e-05,1,-0.000189071215572767,1,3,1,0.1563850045204163,1,0.500741720199585,1,9.792608261108398,1
1778106288723156992,-0.01623105444014072,-0.05547892674803734,-0.9944131970405579,-0.0001511162845417857,-0.0005460000829771161,-0.009929068386554718,,,,,,,,,,,,,,,,,,,,
1778106288730649088,,,,,,,-0.05507419630885124,1,-0.03612907230854034,1,0.04024528712034225,1,0.002904686145484447,1,0.0006996454321779311,1,-0.0007899433257989585,1,3,1,0.1563260853290558,1,0.5010600090026855,1,9.792593002319336,1
1778106288733138432,-0.01529870741069317,-0.05428121611475945,-0.9938068389892578,-0.0001424270594725385,-0.000529404787812382,-0.009930637665092945,,,,,,,,,,,,,,,,,,,,
1778106288740614400,,,,,,,-0.04862861707806587,1,-0.04157109558582306,1,0.03610774874687195,1,0.001853052526712418,1,-0.0001959632500074804,1,-0.001491501810960472,1,3,1,0.156363382935524,1,0.5012658834457397,1,9.792582511901855,1
1778106288743100160,-0.01432742178440094,-0.05310735478997231,-0.9942666292190552,-0.0001324121840298176,-0.0005169641808606684,-0.009947040118277073,,,,,,,,,,,,,,,,,,,,
1778106288750559744,,,,,,,-0.03921337798237801,1,-0.04762520268559456,1,0.02768527157604694,1,0.0008859446970745921,1,-0.0004314999678172171,1,-0.001253740629181266,1,3,1,0.1563880145549774,1,0.501370370388031,1,9.792576789855957,1
1778106288753042176,-0.01358312554657459,-0.0527111180126667,-0.9948866963386536,-0.000126711034681648,-0.0005221750470809639,-0.009956172667443752,,,,,,,,,,,,,,,,,,,,
1778106288760485888,,,,,,,-0.02560769207775593,1,-0.05223227292299271,1,0.0234107356518507,1,-0.000465625140350312,1,-0.0004434831789694726,1,-0.0009480110602453351,1,3,1,0.1563807725906372,1,0.5013233423233032,1,9.79257869720459,1
1778106288762964480,-0.01319162268191576,-0.05315059050917625,-0.9949069023132324,-0.0001273530360776931,-0.0005362366791814566,-0.00994936004281044,,,,,,,,,,,,,,,,,,,,
1778106288770392064,,,,,,,-0.01222510915249586,1,-0.05072722211480141,1,0.02841560356318951,1,-0.001766008324921131,1,-0.0009955372661352158,1,-0.0003265952691435814,1,3,1,0.1569748967885971,1,0.501484751701355,1,9.792561531066895,1
1778106288772867072,-0.01307809818536043,-0.05368837341666222,-0.9945168495178223,-0.0001289173378609121,-0.0005431778263300657,-0.009940305724740028,,,,,,,,,,,,,,,,,,,,
1778106288780278784,,,,,,,-0.002393353963270783,1,-0.04277429357171059,1,0.04071134328842163,1,-0.003611384192481637,1,-0.0006465956685133278,1,0.0007838360616005957,1,3,1,0.1570675671100616,1,0.5011329650878906,1,9.792577743530273,1
1778106288782749952,-0.01305926684290171,-0.05418277159333229,-0.9945570826530457,-0.0001301493612118065,-0.0005482907290570438,-0.009946044534444809,,,,,,,,,,,,,,,,,,,,
1778106288790145792,,,,,,,0.006879701279103756,1,-0.03122654370963573,1,0.04666690155863762,1,-0.005633968394249678,1,0.001004800433292985,1,0.001253462862223387,1,3,1,0.1570283323526382,1,0.5006273984909058,1,9.792604446411133,1
1778106288792613376,-0.01310677640140057,-0.0541345626115799,-0.994240403175354,-0.0001318487775279209,-0.0005412923637777567,-0.009939559735357761,,,,,,,,,,,,,,,,,,,,
1778106288799993856,,,,,,,0.01641423255205154,1,-0.02010029926896095,1,0.04217687249183655,1,-0.006463669706135988,1,0.0006741086835972965,1,0.001578344730660319,1,3,1,0.1569046527147293,1,0.4999880194664001,1,9.792638778686523,1
1778106288802459392,-0.01372777763754129,-0.05414474382996559,-0.9937726259231567,-0.0001437561877537519,-0.000541458313819021,-0.009933383204042912,,,,,,,,,,,,,,,,,,,,
1778106288809821952,,,,,,,0.02370635792613029,1,-0.01670247502624989,1,0.03612061962485313,1,-0.005741355940699577,1,-0.0001232881913892925,1,-0.0003735152713488787,1,3,1,0.1569096744060516,1,0.4994146823883057,1,9.792668342590332,1
1778106288812285952,-0.01467165444046259,-0.0543140135705471,-0.9934947490692139,-0.0001578034862177446,-0.0005455086939036846,-0.009929817169904709,,,,,,,,,,,,,,,,,,,,
1778106288819630592,,,,,,,0.0275454930961132,1,-0.02152833342552185,1,0.03594861179590225,1,-0.00531804608181119,1,-0.0004796423309016973,1,0.0008109660120680928,1,3,1,0.1569308340549469,1,0.4988792836666107,1,9.792695045471191,1
1778106288822463744,-0.01520218700170517,-0.05484230071306229,-0.9939542412757874,-0.0001585213904036209,-0.0005544903688132763,-0.009943332523107529,,,,,,,,,,,,,,,,,,,,
1778106288829420288,,,,,,,0.0286570843309164,1,-0.02732129767537117,1,0.03979973495006561,1,-0.006190801970660686,1,0.0003622359654400498,1,0.0007682166178710759,1,3,1,0.1568904221057892,1,0.4983208477497101,1,9.792724609375,1
1778106288832621568,-0.01633899845182896,-0.05540984496474266,-0.9944024085998535,-0.0001757109275786206,-0.0005610005464404821,-0.009949273429811001,,,,,,,,,,,,,,,,,,,,
1778106288839190272,,,,,,,0.02881726622581482,1,-0.0327763594686985,1,0.03943665325641632,1,-0.009252372197806835,1,0.0004515443579293787,1,0.001260328805074096,1,3,1,0.1568441241979599,1,0.4974871873855591,1,9.792767524719238,1
1778106288842759168,-0.01720872148871422,-0.05574225634336472,-0.9950982928276062,-0.0001817865122575313,-0.0005618848954327404,-0.009959266521036625,,,,,,,,,,,,,,,,,,,,
1778106288848940800,,,,,,,0.0283415149897337,1,-0.0330313928425312,1,0.04257906973361969,1,-0.00889116246253252,1,-0.0005504345754161477,1,0.00127213227096945,1,3,1,0.1568896472454071,1,0.4966346323490143,1,9.79280948638916,1
1778106288852876544,-0.01866609044373035,-0.05575970932841301,-0.9960107803344727,-0.0002028921880992129,-0.0005583274178206921,-0.009971681982278824,,,,,,,,,,,,,,,,,,,,
1778106288858674176,,,,,,,0.02225086838006973,1,-0.03389229997992516,1,0.04720586165785789,1,-0.008026108145713806,1,0.0003458029823377728,1,0.0007921850774437189,1,3,1,0.1568612158298492,1,0.4958707392215729,1,9.792848587036133,1
1778106288862974464,-0.01958333142101765,-0.05543685704469681,-0.9964339733123779,-0.0002073107025353238,-0.000551898090634495,-0.009968879632651806,,,,,,,,,,,,,,,,,,,,
1778106288868573440,,,,,,,0.01294892653822899,1,-0.03634514659643173,1,0.04997189715504646,1,-0.00928373821079731,1,0.001104229711927474,1,0.0003245464176870883,1,3,1,0.1567278355360031,1,0.4949841201305389,1,9.792896270751953,1
1778106288873052928,-0.02017530426383018,-0.0549754686653614,-0.9965260028839111,-0.0002083921426674351,-0.0005451507167890668,-0.009967068210244179,,,,,,,,,,,,,,,,,,,,
1778106288878638848,,,,,,,0.007673032116144896,1,-0.04239491373300552,1,0.04551079869270325,1,-0.01064305938780308,1,0.000277591374469921,1,-0.0003369224141351879,1,3,1,0.1566571444272995,1,0.4939641952514648,1,9.792948722839355,1
1778106288883111168,-0.02147194929420948,-0.05525331944227219,-0.9951466917991638,-0.0002293534344062209,-0.0005560429999604821,-0.00993715412914753,,,,,,,,,,,,,,,,,,,,
1778106288888684544,,,,,,,-0.003508864436298609,1,-0.04893115162849426,1,0.04116564616560936,1,-0.01151176914572716,1,6.859473796794191e-05,1,-0.0003509408561512828,1,3,1,0.1566773951053619,1,0.4928450286388397,1,9.793004989624023,1
1778106288893149952,-0.02273745834827423,-0.05605578422546387,-0.993341863155365,-0.0002421763201709837,-0.0005707775126211345,-0.009911343455314636,,,,,,,,,,,,,,,,,,,,
1778106288898710016,,,,,,,-0.01208000723272562,1,-0.05324916169047356,1,0.03439530730247498,1,-0.01198879070580006,1,0.0005486902664415538,1,-0.001032431493513286,1,3,1,0.1566039323806763,1,0.4916663765907288,1,9.793065071105957,1
1778106288903168768,-0.02337471209466457,-0.05674207210540771,-0.9938249588012695,-0.0002414070768281817,-0.000576705439016223,-0.009942280128598213,,,,,,,,,,,,,,,,,,,,
1778106288908715776,,,,,,,-0.02644547820091248,1,-0.05455343052744865,1,0.02550470642745495,1,-0.01378572639077902,1,0.001374221639707685,1,-0.001067075645551085,1,3,1,0.1564588397741318,1,0.4903680682182312,1,9.793132781982422,1
1778106288913167872,-0.02400703728199005,-0.05760568007826805,-0.9953932166099548,-0.0002469888131599873,-0.0005861450918018818,-0.009972547180950642,,,,,,,,,,,,,,,,,,,,
1778106288918702592,,,,,,,-0.03555197641253471,1,-0.05264502391219139,1,0.02141943946480751,1,-0.01535322703421116,1,0.001940545975230634,1,-0.001447331858798862,1,3,1,0.1562791615724564,1,0.48890021443367,1,9.793209075927734,1
1778106288923147008,-0.02588642761111259,-0.05889498069882393,-0.995086669921875,-0.0002794973261188716,-0.0006052629323676229,-0.009948689490556717,,,,,,,,,,,,,,,,,,,,
1778106288928669696,,,,,,,-0.04147646948695183,1,-0.04948662593960762,1,0.02058760263025761,1,-0.01512365601956844,1,-0.0001234831288456917,1,-0.001989485463127494,1,3,1,0.1562353521585464,1,0.4874218702316284,1,9.793283462524414,1
1778106288933106176,-0.02908389270305634,-0.05974234640598297,-0.9945921897888184,-0.0003296478535048664,-0.0006126839434728026,-0.009935741312801838,,,,,,,,,,,,,,,,,,,,
1778106288938617088,,,,,,,-0.05423126369714737,1,-0.05362467095255852,1,0.03418558090925217,1,-0.01588497683405876,1,-0.0005894363857805729,1,-0.003061467316001654,1,3,1,0.1563057005405426,1,0.4859192073345184,1,9.793356895446777,1
1778106288943046144,-0.02626772224903107,-0.05762848258018494,-1.002998232841492,-0.0002200291055487469,-0.0005524745211005211,-0.01010998338460922,,,,,,,,,,,,,,,,,,,,
1778106288948545024,,,,,,,-0.06666941195726395,1,-0.0630306601524353,1,0.05196170508861542,1,-0.01985358446836472,1,0.001269436092115939,1,-0.003399267792701721,1,3,1,0.1562173217535019,1,0.4840727150440216,1,9.793449401855469,1
1778106288952966400,-0.01619781740009785,-0.05184532329440117,-1.005007982254028,-4.801609611604363e-05,-0.0004382221959531307,-0.01008456386625767,,,,,,,,,,,,,,,,,,,,
1778106288958453248,,,,,,,-0.07302790880203247,1,-0.07151061296463013,1,0.04731263965368271,1,-0.02123766951262951,1,0.002014645608142018,1,-0.003292768960818648,1,3,1,0.1559826880693436,1,0.4820186793804169,1,9.793554306030273,1
1778106288962867200,-0.01010955404490232,-0.04489016532897949,-1.00909698009491,-4.44268443970941e-05,-0.0003749662428162992,-0.01016167365014553,,,,,,,,,,,,,,,,,,,,
1778106288968342016,,,,,,,-0.0793299674987793,1,-0.081817626953125,1,0.03202567994594574,1,-0.0253297109156847,1,8.879772940417752e-05,1,-0.002437408547848463,1,3,1,0.156007781624794,1,0.4800608158111572,1,9.79365062713623,1
1778106288972748544,0.001185114961117506,-0.03910065814852715,-1.002807855606079,0.0001523757819086313,-0.0003292932524345815,-0.009929204359650612,,,,,,,,,,,,,,,,,,,,
1778106288978211072,,,,,,,-0.09780625253915787,1,-0.09666838496923447,1,0.0351409949362278,1,-0.03382795304059982,1,0.000308977672830224,1,-0.0007916853064671159,1,3,1,0.1559822112321854,1,0.4769196212291718,1,9.793804168701172,1
1778106288982610176,0.007758025545626879,-0.03720105811953545,-0.9896569848060608,0.0001647615717956796,-0.0003392866346985102,-0.009761059656739235,,,,,,,,,,,,,,,,,,,,
1778106288988060160,,,,,,,-0.1292127519845963,1,-0.1078560948371887,1,0.04013090953230858,1,-0.04241171851754189,1,0.004764918237924576,1,0.000431386346463114,1,3,1,0.1557613611221313,1,0.4729070067405701,1,9.794002532958984,1
1778106288992452096,0.006800242699682713,-0.03820479288697243,-0.9716294407844543,5.912464985158294e-05,-0.000392576796002686,-0.009511002339422703,,,,,,,,,,,,,,,,,,,,
1778106288997890304,,,,,,,-0.10184096544981,1,-0.09044944494962692,1,-0.04213801398873329,1,-0.0349680557847023,1,0.003316724672913551,1,-0.002786424243822694,1,3,1,0.1553429067134857,1,0.4693956971168518,1,9.794178009033203,1
1778106289002275072,0.006905517540872097,-0.03604813665151596,-0.9703094959259033,8.35739410831593e-05,-0.0003340587136335671,-0.009671312756836414,,,,,,,,,,,,,,,,,,,,
1778106289007700736,,,,,,,-0.003176507307216525,1,-0.03665675967931747,1,-0.06170520931482315,1,-0.02165239676833153,1,-0.01518545672297478,1,-0.01285943109542131,1,3,1,0.1561727374792099,1,0.4675317406654358,1,9.794254302978516,1
1778106289012449792,0.002125849947333336,-0.03485723212361336,-0.9737016558647156,-2.997833144036122e-05,-0.0003311720793135464,-0.009775183163583279,,,,,,,,,,,,,,,,,,,,
1778106289017491968,,,,,,,0.05713933333754539,1,0.02930733188986778,1,-0.1017067804932594,1,-0.004507615230977535,1,-0.01068802829831839,1,-0.01717743277549744,1,3,1,0.1573676466941833,1,0.4667451679706573,1,9.794272422790527,1
1778106289022604800,-0.001884687808342278,-0.03415296971797943,-0.9868448972702026,-6.16559264017269e-05,-0.0003281699900981039,-0.01001453306525946,,,,,,,,,,,,,,,,,,,,
1778106289027264256,,,,,,,0.1687041074037552,1,0.08495066314935684,1,-0.03998962417244911,1,0.00532941659912467,1,-0.01657780632376671,1,-0.0233288835734129,1,3,1,0.1586599946022034,1,0.467282235622406,1,9.794225692749023,1
1778106289032739840,-0.005272614769637585,-0.03532087430357933,-1.001319050788879,-8.837325003696606e-05,-0.0003578494070097804,-0.01018824987113476,,,,,,,,,,,,,,,,,,,,
1778106289037017088,,,,,,,0.2343477010726929,1,0.1036032065749168,1,0.0889570340514183,1,0.01508621033281088,1,-0.01650536805391312,1,-0.02174455299973488,1,3,1,0.1602998077869415,1,0.4690984785556793,1,9.794112205505371,1
1778106289042854912,-0.006693524308502674,-0.039753757417202,-1.010841250419617,-8.76517005963251e-05,-0.0004424051439855248,-0.01022149715572596,,,,,,,,,,,,,,,,,,,,
1778106289046750464,,,,,,,0.2258320897817612,1,0.09428675472736359,1,0.2657084167003632,1,0.002203760435804725,1,0.006803229451179504,1,-0.01093682460486889,1,3,1,0.159845843911171,1,0.4696429669857025,1,9.794093132019043,1
1778106289052950016,-0.004914273042231798,-0.04585300758481026,-1.013546824455261,-2.835215309460182e-05,-0.0005256460281088948,-0.01016757357865572,,,,,,,,,,,,,,,,,,,,
1778106289056650752,,,,,,,0.2268374562263489,1,0.1156942099332809,1,0.2786411046981812,1,0.0001792754046618938,1,0.009346302598714828,1,-0.01081502716988325,1,3,1,0.1587019860744476,1,0.4695151448249817,1,9.79411792755127,1
1778106289063025408,-0.002593060256913304,-0.05058962479233742,-1.006520628929138,9.832499472395284e-07,-0.0005594179383479059,-0.009996886365115643,,,,,,,,,,,,,,,,,,,,
1778106289066717184,,,,,,,0.1794320046901703,1,0.1279003471136093,1,0.2453581839799881,1,0.01596947573125362,1,0.01127972267568111,1,-0.01004032231867313,1,3,1,0.1574846506118774,1,0.4710378050804138,1,9.794064521789551,1
1778106289073080576,-0.002578863641247153,-0.051609106361866,-0.9928110837936401,-2.610444062156603e-05,-0.0005285507068037987,-0.009773173369467258,,,,,,,,,,,,,,,,,,,,
1778106289076763648,,,,,,,0.1392782628536224,1,0.1361316442489624,1,0.1164164021611214,1,0.02987081184983253,1,0.007307094056159258,1,-0.01654505170881748,1,3,1,0.1564799398183823,1,0.47386634349823,1,9.793944358825684,1
1778106289083116032,-0.004300447646528482,-0.04997333139181137,-0.9784672856330872,-5.975381282041781e-05,-0.0004823146446142346,-0.009614573791623116,,,,,,,,,,,,,,,,,,,,
1778106289086790400,,,,,,,0.1053830236196518,1,0.1270534247159958,1,-0.02562981098890305,1,0.04529649019241333,1,-0.000927579530980438,1,-0.02606114186346531,1,3,1,0.1563063561916351,1,0.4781015515327454,1,9.793741226196289,1
1778106289093131776,-0.00641899136826396,-0.04582394286990166,-0.9759912490844727,-8.906403672881424e-05,-0.000408650899771601,-0.009723139926791191,,,,,,,,,,,,,,,,,,,,
1778106289096797440,,,,,,,0.09105665236711502,1,0.08719541877508163,1,-0.1191801056265831,1,0.05824252590537071,1,-0.0005972940707579255,1,-0.03083762153983116,1,3,1,0.1561900079250336,1,0.4836896657943726,1,9.793468475341797,1
1778106289103127296,-0.008689455687999725,-0.04300502687692642,-0.983001172542572,-0.0001122834364650771,-0.0003939703747164458,-0.009903354570269585,,,,,,,,,,,,,,,,,,,,
1778106289106784768,,,,,,,0.1083311215043068,1,0.03203801438212395,1,-0.145938515663147,1,0.05927910655736923,1,-0.005984609946608543,1,-0.03102633729577065,1,3,1,0.1565013825893402,1,0.4895915985107422,1,9.793170928955078,1
1778106289113103360,-0.01240167021751404,-0.0441596731543541,-0.9945966601371765,-0.0001655619707889855,-0.000448324833996594,-0.01007900293916464,,,,,,,,,,,,,,,,,,,,
1778106289116752640,,,,,,,0.1312767118215561,1,-0.009187743999063969,1,-0.07729903608560562,1,0.05818776413798332,1,-0.009218982420861721,1,-0.02366212755441666,1,3,1,0.1572435349225998,1,0.4954442083835602,1,9.792864799499512,1
1778106289123059456,-0.01637503877282143,-0.04827571287751198,-1.003147721290588,-0.0002102917787851766,-0.0005254859570413828,-0.01013196911662817,,,,,,,,,,,,,,,,,,,,
1778106289126700544,,,,,,,0.1318476349115372,1,-0.01385164074599743,1,0.05687156692147255,1,0.05219494551420212,1,-0.006108848378062248,1,-0.01590344682335854,1,3,1,0.1578506380319595,1,0.5006552934646606,1,9.79258918762207,1
1778106289132996352,-0.0194814708083868,-0.05307731032371521,-1.00645899772644,-0.0002316816244274378,-0.0005841432721354067,-0.01010577846318483,,,,,,,,,,,,,,,,,,,,
1778106289136628736,,,,,,,0.1153011992573738,1,0.007194982841610909,1,0.197277843952179,1,0.04003080353140831,1,0.001354428473860025,1,-0.01023930124938488,1,3,1,0.1577881872653961,1,0.5047636032104492,1,9.792379379272461,1
1778106289142913536,-0.02006969414651394,-0.05574904754757881,-1.005225777626038,-0.000209750811336562,-0.0005881891120225191,-0.01004178635776043,,,,,,,,,,,,,,,,,,,,
1778106289146537472,,,,,,,0.09439469873905182,1,0.05228160321712494,1,0.2213376313447952,1,0.03775011003017426,1,0.01079584844410419,1,-0.008257626555860043,1,3,1,0.1567219644784927,1,0.5083721280097961,1,9.792210578918457,1
1778106289152811264,-0.01899909228086472,-0.05586842447519302,-1.000159740447998,-0.0001773986441548914,-0.0005589057109318674,-0.00994714442640543,,,,,,,,,,,,,,,,,,,,
1778106289156426240,,,,,,,0.07156074047088623,1,0.0840805396437645,1,0.1523886322975159,1,0.0436747670173645,1,0.008470932021737099,1,-0.01229298859834671,1,3,1,0.1557454019784927,1,0.5124980807304382,1,9.792010307312012,1
1778106289162689024,-0.01861152797937393,-0.05449262633919716,-0.9915313720703125,-0.0001816661533666775,-0.0005280536715872586,-0.00981656089425087,,,,,,,,,,,,,,,,,,,,
1778106289166295808,,,,,,,0.03440741449594498,1,0.07705071568489075,1,0.038465216755867,1,0.05144247785210609,1,0.005915017332881689,1,-0.01524335145950317,1,3,1,0.1547902673482895,1,0.5171637535095215,1,9.791780471801758,1
1778106289172547328,-0.01773310638964176,-0.05240624770522118,-0.9868453145027161,-0.000169226506841369,-0.0004972859751433134,-0.009812120348215103,,,,,,,,,,,,,,,,,,,,
1778106289176145920,,,,,,,-0.005207612179219723,1,0.04133149981498718,1,-0.04562424495816231,1,0.05253266170620918,1,0.001468275557272136,1,-0.014131810516119,1,3,1,0.1545267552137375,1,0.5223632454872131,1,9.791508674621582,1
1778106289182386176,-0.01744373142719269,-0.0516100600361824,-0.9871665239334106,-0.0001713885430945083,-0.0005049892351962626,-0.009870428591966629,,,,,,,,,,,,,,,,,,,,
1778106289185976576,,,,,,,-0.03607848659157753,1,-0.000952922273427248,1,-0.07834438234567642,1,0.04844489693641663,1,0.0006461383891291916,1,-0.01021311990916729,1,3,1,0.1544399261474609,1,0.5271732807159424,1,9.791252136230469,1
1778106289192387840,-0.01744707487523556,-0.05288969352841377,-0.9903535842895508,-0.0001753260585246608,-0.0005420531961135566,-0.009937478229403496,,,,,,,,,,,,,,,,,,,,
1778106289195788032,,,,,,,-0.04211242869496346,1,-0.02238093875348568,1,-0.0664995014667511,1,0.04894554242491722,1,-0.0008146869949996471,1,-0.006435183342546225,1,3,1,0.1544111967086792,1,0.5319401025772095,1,9.790994644165039,1
1778106289202552064,-0.01760488003492355,-0.05523418635129929,-0.9951560497283936,-0.0001765924389474094,-0.0005769866984337568,-0.01000712718814611,,,,,,,,,,,,,,,,,,,,
1778106289205579776,,,,,,,-0.03166018426418304,1,-0.01874244026839733,1,-0.0170777440071106,1,0.05028918758034706,1,-0.004599863197654486,1,-0.006062618922442198,1,3,1,0.1547836065292358,1,0.536848783493042,1,9.79072093963623,1
1778106289212695808,-0.01917370781302452,-0.05855073034763336,-0.9969829320907593,-0.0002088179317070171,-0.0006215153262019157,-0.009993408806622028,,,,,,,,,,,,,,,,,,,,
1778106289215352064,,,,,,,-0.02767601050436497,1,-0.0003313035704195499,1,0.06726772338151932,1,0.05226718634366989,1,-0.00343238259665668,1,-0.00643454771488905,1,3,1,0.1551776826381683,1,0.5419805645942688,1,9.790431976318359,1
1778106289222820096,-0.02038673125207424,-0.06169916316866875,-0.9980939030647278,-0.0002181734307669103,-0.0006520240567624569,-0.009994321502745152,,,,,,,,,,,,,,,,,,,,
1778106289225105408,,,,,,,-0.01892847381532192,1,0.02514300309121609,1,0.1129444316029549,1,0.05162439495325089,1,0.0003707957803271711,1,-0.004882358014583588,1,3,1,0.1550945341587067,1,0.5470729470252991,1,9.79015064239502,1
1778106289232924416,-0.02082457579672337,-0.06318604946136475,-0.9985799193382263,-0.0002143406454706565,-0.0006482818280346692,-0.009991839528083801,,,,,,,,,,,,,,,,,,,,
1778106289234839296,,,,,,,-0.01610348001122475,1,0.03781425207853317,1,0.1095265671610832,1,0.04284948483109474,1,0.003803103696554899,1,-0.001251588342711329,1,3,1,0.1547878384590149,1,0.5513848066329956,1,9.789913177490234,1
1778106289243009024,-0.02022933028638363,-0.06392190605401993,-0.9973486065864563,-0.0001952740858541802,-0.000646600965410471,-0.009961215779185295,,,,,,,,,,,,,,,,,,,,
1778106289244736256,,,,,,,-0.01635876297950745,1,0.02962607145309448,1,0.0780329555273056,1,0.03328261896967888,1,0.005342351272702217,1,0.00492802681401372,1,3,1,0.1542664617300034,1,0.5547687411308289,1,9.789730072021484,1
1778106289253073408,-0.01925214752554893,-0.06404616683721542,-0.9946667551994324,-0.0001812528207665309,-0.0006408549379557371,-0.009917836636304855,,,,,,,,,,,,,,,,,,,,
1778106289254795776,,,,,,,-0.01823540404438972,1,0.0103711374104023,1,0.03073303028941154,1,0.02964898571372032,1,0.003221272490918636,1,0.008365873247385025,1,3,1,0.1539151221513748,1,0.5576272010803223,1,9.789573669433594,1
1778106289263118336,-0.0179257970303297,-0.06391929090023041,-0.9919827580451965,-0.0001648114121053368,-0.0006376204546540976,-0.009887718595564365,,,,,,,,,,,,,,,,,,,,
1778106289264835328,,,,,,,-0.03390328213572502,1,-0.01882433146238327,1,0.0126329492777586,1,0.02903018333017826,1,0.003217647550627589,1,0.01005030702799559,1,3,1,0.1536852419376373,1,0.560454785823822,1,9.78941535949707,1
1778106289273143552,-0.01620918698608875,-0.06318624317646027,-0.991908848285675,-0.0001427043025614694,-0.000622774357907474,-0.009917002171278,,,,,,,,,,,,,,,,,,,,
1778106289274855424,,,,,,,-0.04606039822101593,1,-0.04661068692803383,1,0.001566655584610999,1,0.02867707796394825,1,0.00312781473621726,1,0.01036000996828079,1,3,1,0.153452605009079,1,0.5632508993148804,1,9.78925895690918,1
1778106289283149056,-0.01524173375219107,-0.0624844916164875,-0.9925017952919006,-0.0001402452180627733,-0.0006166708772070706,-0.009932399727404118,,,,,,,,,,,,,,,,,,,,
1778106289284856064,,,,,,,-0.05056131631135941,1,-0.05825376510620117,1,-0.003363854717463255,1,0.02782746776938438,1,0.0005232287221588194,1,0.009630576707422733,1,3,1,0.1534177958965302,1,0.5659709572792053,1,9.789102554321289,1
1778106289293134848,-0.01573528163135052,-0.06222023069858551,-0.9927893280982971,-0.0001624766591703519,-0.0006179061019793153,-0.009932531043887138,,,,,,,,,,,,,,,,,,,,
1778106289294836736,,,,,,,-0.04479824006557465,1,-0.06268877536058426,1,0.008552075363695621,1,0.02412351593375206,1,-0.0006975759170018137,1,0.01165799330919981,1,3,1,0.1535489708185196,1,0.5684120655059814,1,9.788958549499512,1
1778106289303101440,-0.01695355400443077,-0.06210931017994881,-0.9921928644180298,-0.0001827951637096703,-0.0006192143773660064,-0.009915396571159363,,,,,,,,,,,,,,,,,,,,
1778106289304797952,,,,,,,-0.03513005375862122,1,-0.06147200241684914,1,0.03471086919307709,1,0.01665005832910538,1,-0.002853073179721832,1,0.01358153484761715,1,3,1,0.1539216041564941,1,0.5701335668563843,1,9.788852691650391,1
1778106289313048576,-0.01811160147190094,-0.06203075870871544,-0.9926407337188721,-0.0001956611813511699,-0.0006187898106873035,-0.009929632768034935,,,,,,,,,,,,,,,,,,,,
1778106289314739712,,,,,,,-0.02198256924748421,1,-0.05834440514445305,1,0.0609203577041626,1,0.009282565675675869,1,0.0007479770574718714,1,0.01578257232904434,1,3,1,0.1539696455001831,1,0.5710628032684326,1,9.788798332214355,1
1778106289322977024,-0.01806173287332058,-0.06218058615922928,-0.9940582513809204,-0.0001806782674975693,-0.0006226077675819397,-0.00995680782943964,,,,,,,,,,,,,,,,,,,,
1778106289324661760,,,,,,,-0.005096405278891325,1,-0.0497715100646019,1,0.0615643635392189,1,0.008127067238092422,1,0.002025955123826861,1,0.0164613164961338,1,3,1,0.1538772284984589,1,0.5718280076980591,1,9.788754463195801,1
1778106289332886272,-0.01738719642162323,-0.06238271296024323,-0.995448887348175,-0.0001661743008298799,-0.0006254019681364298,-0.00997039582580328,,,,,,,,,,,,,,,,,,,,
1778106289334564608,,,,,,,0.004343061707913876,1,-0.04178324714303017,1,0.05568633228540421,1,0.008855585008859634,1,0.002451272681355476,1,0.01500500831753016,1,3,1,0.1536904722452164,1,0.5726395845413208,1,9.788710594177246,1
1778106289342776320,-0.01658354327082634,-0.06334248185157776,-0.9956207871437073,-0.0001570768508827314,-0.0006432686350308359,-0.009959563612937927,,,,,,,,,,,,,,,,,,,,
1778106289344447488,,,,,,,-0.0005828731809742749,1,-0.03819217532873154,1,0.05280927568674088,1,0.008805466815829277,1,0.001388666918501258,1,0.01402475591748953,1,3,1,0.1536030322313309,1,0.573508620262146,1,9.788661003112793,1
1778106289352646400,-0.01598770171403885,-0.06353238224983215,-0.9943715929985046,-0.000151990243466571,-0.000637283839751035,-0.00993161927908659,,,,,,,,,,,,,,,,,,,,
1778106289354311424,,,,,,,-0.01260275859385729,1,-0.03619012609124184,1,0.05860645323991776,1,0.007756987120956182,1,0.001583776785992086,1,0.01429260894656181,1,3,1,0.1535359770059586,1,0.5742769241333008,1,9.788617134094238,1
1778106289362497024,-0.01565669290721416,-0.06207700446248055,-0.9925596714019775,-0.0001536196505185217,-0.0006047965725883842,-0.009904563426971436,,,,,,,,,,,,,,,,,,,,
1778106289364156672,,,,,,,-0.02398042939603329,1,-0.03450397774577141,1,0.054161187261343,1,0.007866927422583103,1,0.002862721681594849,1,0.01442523766309023,1,3,1,0.1536160558462143,1,0.5752716064453125,1,9.788557052612305,1
1778106289372328192,-0.0150397177785635,-0.05863303318619728,-0.991447925567627,-0.0001439781917724758,-0.0005470896721817553,-0.009900936856865883,,,,,,,,,,,,,,,,,,,,
1778106289373983232,,,,,,,-0.0235477089881897,1,-0.03508285805583,1,0.04020978882908821,1,0.008776233531534672,1,0.001693082158453763,1,0.01304196380078793,1,3,1,0.1534719318151474,1,0.5760976076126099,1,9.788510322570801,1
1778106289382505472,-0.01444667018949986,-0.05505850911140442,-0.9913153648376465,-0.0001373321283608675,-0.0005075811059214175,-0.009910277090966702,,,,,,,,,,,,,,,,,,,,
1778106289383790336,,,,,,,-0.01696261577308178,1,-0.03612005710601807,1,0.02651731669902802,1,0.01408663392066956,1,-0.0004050466814078391,1,0.009137707762420177,1,3,1,0.1535549908876419,1,0.5773323178291321,1,9.788436889648438,1
1778106289392662528,-0.01450076326727867,-0.05359595268964767,-0.9914889335632324,-0.0001456307072658092,-0.0005154304672032595,-0.009916756302118301,,,,,,,,,,,,,,,,,,,,
1778106289393578496,,,,,,,-0.009052219800651073,1,-0.04432346671819687,1,0.02475876547396183,1,0.01810256950557232,1,-0.0003309481835458428,1,0.005631153471767902,1,3,1,0.1536367237567902,1,0.5790128111839294,1,9.788335800170898,1
1778106289402799872,-0.01475140731781721,-0.05550040677189827,-0.9928954243659973,-0.0001505020627519116,-0.0005729144904762506,-0.00994476955384016,,,,,,,,,,,,,,,,,,,,
1778106289403347200,,,,,,,-0.003155529266223311,1,-0.04462572559714317,1,0.0369168147444725,1,0.02083012834191322,1,-0.0002270005061291158,1,0.003746647154912353,1,3,1,0.1537119001150131,1,0.5810965895652771,1,9.788211822509766,1
1778106289412916992,-0.01536505483090878,-0.0595431961119175,-0.9939549565315247,-0.0001606068835826591,-0.0006379693513736129,-0.00995175912976265,,,,,,,,,,,,,,,,,,,,
1778106289413096960,,,,,,,0.0001237082178704441,1,-0.02854370884597301,1,0.05457839742302895,1,0.02299806475639343,1,0.0005481598782353103,1,0.00342378462664783,1,3,1,0.1536844521760941,1,0.5832836627960205,1,9.788082122802734,1
1778106289422827264,,,,,,,0.006142307072877884,1,0.007327370345592499,1,0.06535643339157104,1,0.02671100758016109,1,0.001974138431251049,1,0.003524825908243656,1,3,1,0.1535179913043976,1,0.5858772397041321,1,9.787929534912109,1
1778106289423014400,-0.01532541215419769,-0.06442337483167648,-0.9947655200958252,-0.0001530531444586813,-0.0006989323883317411,-0.00995747372508049,,,,,,,,,,,,,,,,,,,,
1778106289432903936,,,,,,,0.01185321621596813,1,0.04483208060264587,1,0.06651163846254349,1,0.03264716267585754,1,0.001831763656809926,1,0.001535807154141366,1,3,1,0.153330072760582,1,0.5889847874641418,1,9.787746429443359,1
1778106289433092352,-0.01539584994316101,-0.06725040078163147,-0.9943857192993164,-0.000155082656419836,-0.0007053582812659442,-0.009941115044057369,,,,,,,,,,,,,,,,,,,,
1778106289442960640,,,,,,,0.01120051462203264,1,0.06205455586314201,1,0.06463837623596191,1,0.03775181248784065,1,0.001097300555557013,1,-0.001156082260422409,1,3,1,0.1532169133424759,1,0.5925725698471069,1,9.787530899047852,1
1778106289443150336,-0.01524779293686152,-0.06650732457637787,-0.9937056303024292,-0.000151911357534118,-0.0006576092564500868,-0.009929241612553596,,,,,,,,,,,,,,,,,,,,
1778106289452997376,,,,,,,0.008597742766141891,1,0.04670960456132889,1,0.05064707249403,1,0.04160063341259956,1,0.001841111923567951,1,-0.004659028723835945,1,3,1,0.1530031263828278,1,0.5965924859046936,1,9.787290573120117,1
1778106289453188608,-0.0143274050205946,-0.06260998547077179,-0.9934877157211304,-0.0001325001212535426,-0.0005816115881316364,-0.009931290522217751,,,,,,,,,,,,,,,,,,,,
1778106289463014144,,,,,,,0.002409327775239944,1,0.01080251112580299,1,0.04003230482339859,1,0.04360925778746605,1,0.002303325803950429,1,-0.005263285245746374,1,3,1,0.1527798622846603,1,0.600892961025238,1,9.787031173706055,1
1778106289463206912,-0.01339461468160152,-0.05729775875806808,-0.9939581155776978,-0.0001233071088790894,-0.0005098182591609657,-0.009944712743163109,,,,,,,,,,,,,,,,,,,,
1778106289473011456,,,,,,,0.002594194374978542,1,-0.03306711092591286,1,0.03184372931718826,1,0.0427984818816185,1,0.000704429461620748,1,-0.00465439073741436,1,3,1,0.1526057124137878,1,0.6051374673843384,1,9.786771774291992,1
1778106289473205248,-0.01252712681889534,-0.05407066643238068,-0.9945500493049622,-0.0001145838759839535,-0.000497803557664156,-0.00995310116559267,,,,,,,,,,,,,,,,,,,,
1778106289482989824,,,,,,,0.001757921418175101,1,-0.0567791573703289,1,0.03532328456640244,1,0.0398402251303196,1,-0.0001979587541427463,1,-0.002048327820375562,1,3,1,0.1525721997022629,1,0.6090547442436218,1,9.786529541015625,1
1778106289483184128,-0.01270084921270609,-0.05528570339083672,-0.9936312437057495,-0.000128347659483552,-0.0005602198070846498,-0.009927279315888882,,,,,,,,,,,,,,,,,,,,
1778106289492948224,,,,,,,0.003120974637567997,1,-0.04553738236427307,1,0.04174996167421341,1,0.04112887755036354,1,0.0009664022363722324,1,-0.001379955327138305,1,3,1,0.1525033861398697,1,0.6130017638206482,1,9.786284446716309,1
1778106289493143040,-0.01319014094769955,-0.06061254069209099,-0.9924963116645813,-0.000138587478431873,-0.0006621098145842552,-0.009911357425153255,,,,,,,,,,,,,,,,,,,,
1778106289502887168,,,,,,,0.01203479804098606,1,-0.003252207767218351,1,0.04363520815968513,1,0.04501156881451607,1,0.00121052807662636,1,-0.002261623973026872,1,3,1,0.1523546576499939,1,0.6173525452613831,1,9.786012649536133,1
1778106289503081984,-0.01313912123441696,-0.06731591373682022,-0.9924816489219666,-0.000130727217765525,-0.0007467542891390622,-0.009924284182488918,,,,,,,,,,,,,,,,,,,,
1778106289512806144,,,,,,,0.02103506587445736,1,0.05317859724164009,1,0.0387522466480732,1,0.0504496805369854,1,0.002208420773968101,1,-0.003388371784240007,1,3,1,0.1521217972040176,1,0.6222359538078308,1,9.785707473754883,1
1778106289513001728,-0.01336419023573399,-0.07324542850255966,-0.9929315447807312,-0.0001360192836727947,-0.0007996710482984781,-0.009933976456522942,,,,,,,,,,,,,,,,,,,,
1778106289522705664,,,,,,,0.02937490120530128,1,0.08957113325595856,1,0.03265068307518959,1,0.05528388544917107,1,0.001290465239435434,1,-0.004136072937399149,1,3,1,0.15196792781353,1,0.6276637315750122,1,9.78536319732666,1
1778106289522902016,-0.01340935379266739,-0.07604468613862991,-0.9939075708389282,-0.000134681977215223,-0.0007934921886771917,-0.009949730709195137,,,,,,,,,,,,,,,,,,,,
1778106289532585472,,,,,,,0.02752973511815071,1,0.08270202577114105,1,0.04134202748537064,1,0.05472194775938988,1,0.001124606933444738,1,-0.004719377495348454,1,3,1,0.151862308382988,1,0.6330291628837585,1,9.785018920898438,1
1778106289532782592,-0.01289024204015732,-0.07516446709632874,-0.9950453639030457,-0.0001234281808137894,-0.0007414338178932667,-0.009963345713913441,,,,,,,,,,,,,,,,,,,,
1778106289542445824,,,,,,,0.02257707342505455,1,0.03560145199298859,1,0.05214500054717064,1,0.05160011723637581,1,0.002026129048317671,1,-0.00322192395105958,1,3,1,0.1516536772251129,1,0.6381404399871826,1,9.784689903259277,1
1778106289542643968,-0.01224033627659082,-0.07345465570688248,-0.9958086609840393,-0.0001159607563749887,-0.0007141957757994533,-0.009967193938791752,,,,,,,,,,,,,,,,,,,,
1778106289552286464,,,,,,,0.02288821898400784,1,-0.02507682144641876,1,0.05196436867117882,1,0.04978504776954651,1,0.001720538130030036,1,-0.002041826490312815,1,3,1,0.1514385044574738,1,0.6430404186248779,1,9.784372329711914,1
1778106289552485632,-0.01121081132441759,-0.07242494076490402,-0.9956724643707275,-9.990343824028969e-05,-0.0007091543520800769,-0.00995729211717844,,,,,,,,,,,,,,,,,,,,
1778106289562108160,,,,,,,0.0204777792096138,1,-0.07829654216766357,1,0.04723422229290009,1,0.04875345900654793,1,0.002180674346163869,1,-0.0004930756404064596,1,3,1,0.1511848121881485,1,0.6477710008621216,1,9.784064292907715,1
1778106289562307840,-0.01069748681038618,-0.07398789376020432,-0.9941444396972656,-0.0001011749263852835,-0.0007541126105934381,-0.009923678822815418,,,,,,,,,,,,,,,,,,,,
1778106289571910144,,,,,,,0.01982812210917473,1,-0.1009500175714493,1,0.03735093772411346,1,0.04568029195070267,1,0.001526719308458269,1,0.0008575566462241113,1,3,1,0.1510240435600281,1,0.6522918939590454,1,9.783766746520996,1
1778106289572482816,-0.0103966873139143,-0.07766526192426682,-0.9927760362625122,-9.958301961887628e-05,-0.0008168738568201661,-0.009912020526826382,,,,,,,,,,,,,,,,,,,,
1778106289581692928,,,,,,,0.02475793659687042,1,-0.08776455372571945,1,0.02589445747435093,1,0.04034546762704849,1,0.0006836472311988473,1,0.003299853298813105,1,3,1,0.1509592086076736,1,0.6563354730606079,1,9.783496856689453,1
1778106289582637824,-0.01028097420930862,-0.08084705471992493,-0.9924874305725098,-0.0001021068164845929,-0.0008446266292594373,-0.009921642020344734,,,,,,,,,,,,,,,,,,,,
1778106289591456512,,,,,,,0.03103269636631012,1,-0.0669064074754715,1,0.01813899725675583,1,0.03240746632218361,1,0.0006694583571515977,1,0.004080321174114943,1,3,1,0.1509383916854858,1,0.6595577001571655,1,9.783281326293945,1
1778106289592772352,-0.009533710777759552,-0.08217208832502365,-0.9936084151268005,-8.699978934600949e-05,-0.0008383574895560741,-0.009948546998202801,,,,,,,,,,,,,,,,,,,,
1778106289601200640,,,,,,,0.04108927026391029,1,-0.05325287207961082,1,0.01923797652125359,1,0.0283537320792675,1,-0.0005892991321161389,1,0.003499377286061645,1,3,1,0.1510221213102341,1,0.6623263955116272,1,9.783092498779297,1
1778106289602887424,-0.00887499563395977,-0.08138329535722733,-0.9950328469276428,-8.099887054413557e-05,-0.0008064160938374698,-0.009966745972633362,,,,,,,,,,,,,,,,,,,,
1778106289612982272,-0.008021031506359577,-0.07833527773618698,-0.9958875179290771,-7.103767711669207e-05,-0.0007506243418902159,-0.009968400001525879,,,,,,,,,,,,,,,,,,,,
1778106289623057920,-0.006991927046328783,-0.0746866911649704,-0.9954858422279358,-5.765918467659503e-05,-0.0007046241662465036,-0.009952180087566376,,,,,,,,,,,,,,,,,,,,
1778106289633113344,-0.006553298328071833,-0.07215069234371185,-0.9940921664237976,-6.015869439579546e-05,-0.0006916877464391291,-0.009924895130097866,,,,,,,,,,,,,,,,,,,,
1778106289643149312,-0.006445975508540869,-0.07050858438014984,-0.992738664150238,-6.246433622436598e-05,-0.0006866519688628614,-0.009912015870213509,,,,,,,,,,,,,,,,,,,,
